Session_Name_	Trial_Index_	Trial_Recycled_	condition	text	question	expected_key	QUESTION_KEY_PRESSED	QUESTION_RT	QUESTION_ACCURACY	SENTENCE_RT	speechid	paragraphid	counterbalance	LAST_COUNTERBALANCE
P06	1	False	practice	"NY TALE BEGYNDER NU"	"NO QUESTION"	NA	.	-1	-1	19306	1327	-1	0	0
P06	2	False	practice	"Hej alle sammen!"	"NO QUESTION"	NA	.	-1	-1	3769	1327	0	0	0
P06	3	False	practice	"Som I allerede ved, vil vi om lidt tænde for et bål, der vil brænde et skab af – det skab, vi har følt os begrænset af, indelukket i, og som de fleste af os er brudt ud af for at kunne blive lykkeligere."	"NO QUESTION"	NA	.	-1	-1	6748	1327	1	0	0
P06	4	False	practice	"'Men skabe er da ganske praktiske til opbevaring af mangt og meget, ikke sandt?' Jo, opbevaring af værdier, det er rigtigt – men når vi først begynder at sætte spørgsmålstegn ved disse værdier, så føles skabet mere og mere trangt, for det kan ikke rumme vores ideer og følelser mere."	"NO QUESTION"	NA	.	-1	-1	7404	1327	2	0	0
P06	5	False	practice	"'Jamen hvad er der i det skab?' Der er en opfattelse af at kvinder og mænd skal tænke, føle, klæde sig og handle forskelligt – fordi nogle er kvinder og andre er mænd. Kønsroller kalder vi det. Men det rækker faktisk meget længere end bare til roller, vi spiller – rollerne invaderer vores tanker og vores følelser, så vi næsten ikke kan tænke uden for rollen, så længe skabet omslutter os, og i hvert fald først og fremmest føler vi må tage hensyn til dem, der er i skabet..."	"Spørgsmål:\nMener taleren at kønsroller både påvirker hvordan vi handler og tænker?"	1	1	7464	1	15215	1327	3	0	0
P06	6	False	practice	"Når vi endelig bryder ud af skabet og for alvor viser og siger det, der ikke passer i det normative skab, kan vi godt opleve negative reaktioner – men så sandelig også positive – for vi er jo slet ikke alene!"	"NO QUESTION"	NA	.	-1	-1	12621	1327	4	0	0
P06	7	False	practice	"Der er nemlig andre som ligner os mere eller mindre, vi er en broget og mangfoldig flok i alle aldre, hudfarver, kulturelle baggrunde, med og uden handicap, med og uden tro, af forskellig politisk overbevisning, og – vigtigst for os her: af flere forskellige kønsidentiteter og seksuelle orienteringer."	"NO QUESTION"	NA	.	-1	-1	11483	1327	5	0	0
P06	8	False	practice	"Fælles for os er, at vi er en regnbueminoritet i forhold til flertallets skab – men det betyder ikke at majoriteten har ret. Vi vil udefra informere om, at der er andre måder at se tingene på, tilbyde et alternativt syn på livet og verden, som kan hjælpe nogle – især børn og unge – ud af et skab, de mistrives i."	"Spørgsmål:\nMener taleren at minoriteter bør tie med deres verdenssyn?"	2	2	2915	1	10252	1327	6	0	0
P06	9	False	practice	"Lad os brænde skabet med normerne, så vi frigøres fra dem og får retten til at være dem, vi faktisk er!"	"NO QUESTION"	NA	.	-1	-1	5321	1327	7	0	0
P06	10	False	experiment	"NY TALE BEGYNDER NU"	"NO QUESTION"	NA	.	-1	-1	1511	1323	-1	8	8
P06	11	False	experiment	"Regn giver liv. Regn er rigtig godt for mange ting – men i små mængder. Det kan vi vist alle blive enige om efter en sommer med kloakvand i kældrene og oversvømmede marker så langt øjet rækker."	"NO QUESTION"	NA	.	-1	-1	7280	1323	0	8	8
P06	12	False	experiment	"Vi står lige nu over for en gigantisk udfordring med at tilpasse os fremtidens klima og håndtere de store regnmængder. Jeg tror, det er helt afgørende, at vi går til arbejdet med en åbenhed overfor nye ideer og nye partnerskaber. Ingen kommune, intet forsyningsselskab og ingen borger kan løse det her problem alene. Det har derfor været meget vigtigt for mig at kunne komme her i dag og starte dialogen med alle jer."	"NO QUESTION"	NA	.	-1	-1	12230	1323	1	8	8
P06	13	False	experiment	"Jeg kommer ikke med den helt store pose penge, som nogen af jer måske havde håbet på. Men jeg kommer heller ikke tomhændet: Jeg kommer med en ny regering, der strutter af energi og initiativlyst."	"NO QUESTION"	NA	.	-1	-1	5685	1323	2	8	8
P06	14	False	experiment	"Den tidligere regering har forsømt at handle på vores viden om klimaforandringer og deres konsekvenser. Den nye regering markerer et skift i tilgangen til at løse klimatilpasning – fra passiv vidensopsamling til at handle i fællesskab og dialog."	"NO QUESTION"	NA	.	-1	-1	8245	1323	3	8	8
P06	15	False	experiment	"Jeg kommer også med en klimatilpasningspakke, der skal styrke og opprioritere indsatsen for klimatilpasning. Pakken bliver en bred palet af initiativer, der med udgangspunkt i regeringsgrundlaget både dækker ny lovgivning, styrket rådgivning og løsningsorienteret dialog. For på trods af de økonomiske krisetider, løfter vi fanen højt for klimatilpasning. Opgaven skal løses. Og den skal løses i fællesskab."	"NO QUESTION"	NA	.	-1	-1	17084	1323	4	8	8
P06	16	False	experiment	"For at få mest muligt ud af de sparsomme midler, gælder det om at løse flere problemer på en gang. På verdensplan står vi med to kriser: den økonomiske krise og klima- og ressourcekrisen. De to kriser hænger sammen og skal også løses sammen. Danmark skal være et grønt demonstrationsland, hvor nye teknologier bliver udviklet og afprøvet, så de bliver efterspurgt globalt."	"NO QUESTION"	NA	.	-1	-1	12033	1323	5	8	8
P06	17	False	experiment	"På mere lokalt plan – det, som vi har fokus på i dag – skal vi også se tingene i sammenhæng. Vand og natur har oprindeligt befundet sig i fine kredsløb. Det har vi i takt med udviklingen af det civiliserede samfund rykket på. Jeg siger selvfølgelig ikke, at vi skal rulle udviklingen tilbage. Men vi har opbygget så utrolig meget viden og teknologi i vores moderne samfund, at vi må kunne bruge noget af det til at få synergieffekter ud af den nødvendige klimatilpasning."	"NO QUESTION"	NA	.	-1	-1	15395	1323	6	8	8
P06	18	False	experiment	"Kan vi for eksempel ikke på én gang fjerne vandet fra det sted, hvor det gør skade, og samtidig bruge det til gavn for naturen, dyrelivet eller til grønne områder i byerne – frem for at sende det ned under jorden i nogle meget dyre betonrør? Det vil vi i regeringen gerne medvirke til."	"NO QUESTION"	NA	.	-1	-1	12397	1323	7	8	8
P06	19	False	experiment	"Det er jer, der er helt tæt på problemerne i hverdagen og ved, hvor skoen trykker – eller skulle vi sige – hvor de utætte sprækker er. Hvis vi skal løfte de store udfordringer, der følger med de hyppigere skybrud, er det helt afgørende, at staten, kommuner, forsyninger, erhvervsliv, forskningsinstitutioner og interesseorganisationer har en tæt dialog. Derfor vil jeg skabe rammerne for en styrket dialog om klimatilpasning. Jeg vil i den kommende tid lancere forskellige initiativer, der inddrager interessenter på en ny måde. Jeg vil blandt andet nedsætte et nationalt dialogforum, der for første gang samler nøgleaktører og beslutningstagere på området."	"NO QUESTION"	NA	.	-1	-1	18416	1323	8	8	8
P06	20	False	experiment	"Når vi tager fat på dialogen om klimatilpasning, er det på mange måder en konkretisering og udfoldning af 'Kodeks for godt samarbejde', som Miljøministeriet og KL i fællesskab har udarbejdet. Jeg er glad for, at vi i fællesskab tager ansvar for dialog og samarbejde."	"Spørgsmål:\nHar Miljøministeriet alene udarbejdet 'Kodeks for godt samarbejde'?"	2	2	4178	1	6884	1323	9	8	8
P06	21	False	experiment	"Der er allerede mange fine eksempler i kommunerne på, hvordan man håndterer oversvømmelserne. Et af de eksempler, jeg har hørt om, er et tæt samarbejde mellem Ikast-Brande Kommunes planafdeling, miljøforvaltning og forsyning, som har forbundet regnvandsbassiner ad snoede kanaler og integreret det i en lokalplan – fuldstændig ligesom stisystemer, broer og legepladser. Løsningen er klimatilpasset og testet for konsekvenserne ved 'monsterregn'."	"Spørgsmål:\nEr nogle kommuner - på tidspunktet for talen - gået i gang med at håndtere oversvømmelser?"	1	1	3969	1	20233	1323	10	8	8
P06	22	False	experiment	"Et andet eksempel er fra Odense, hvor man gik mere radikalt til værks. Efter at vandselskabet havde overvejet flere forskellige traditionelle løsninger, forslog ejerne af de oversvømmelsestruede grunde, at vandselskabet købte deres grunde. Det forslag tog de imod. Husene blev revet ned, og der blev lavet to nye søer. Og så var løsningen faktisk billigere end de løsninger, vandselskabet havde undersøgt."	"NO QUESTION"	NA	.	-1	-1	19033	1323	11	8	8
P06	23	False	experiment	"De to løsninger tjener ikke som facitlister, men som gode eksempler på, hvordan man ved at lytte og samarbejde på nye måder kan finde gode løsninger, der fungerer lige netop der. For der er ingen tvivl om, at løsningerne skal findes lokalt. Derfor er det også helt afgørende, at I i kommunerne lever op til jeres ansvar. Og så lover jeg, at staten vil gøre sit bedste for at give jer gode rammevilkår."	"NO QUESTION"	NA	.	-1	-1	9697	1323	12	8	8
P06	24	False	experiment	"Helt overordnet skal vi have en national handlingsplan for klimatilpasning. Den nationale handlingsplan skal skabe overblik og sammenhæng mellem statens initiativer for klimatilpasning, og den skal fokusere på alle de positive synergieffekter, der kan være af klimatilpasning – både i forhold til vand, natur, biodiversitet, infrastruktur, byudvikling, byggeri og fødevareproduktion."	"NO QUESTION"	NA	.	-1	-1	11816	1323	13	8	8
P06	25	False	experiment	"Regeringen skal drøfte, hvordan den nationale handlingsplan bedst muligt kan tilvejebringes. Men der skal tænkes langsigtet og på tværs af sektorer. Handlingsplanen skal vedtages i regeringen. Et af elementerne kan være en klimatilpasningslov, der understøtter helhedsorienterede løsninger for regnvand og skybrud."	"NO QUESTION"	NA	.	-1	-1	9233	1323	14	8	8
P06	26	False	experiment	"Vi skal også se på finansieringsmulighederne: Både i forhold til den langsigtede tilpasning, hvor vi med en bred vifte af løsninger skal tilpasse os fremtidens klima for at bevare serviceniveauet. Det kan for eksempel være ved at bygge større rør, lave faskiner på private grunde, grønne tage osv. Og også i forhold til de akutte kraftige skybrud, som vi ikke bare kan bygge os ud af. Dem må vi forberede os på ved intelligent styring og opmagasinering, så vandet ledes hen, hvor det gør mindst skade, så længe uvejret står på."	"NO QUESTION"	NA	.	-1	-1	18959	1323	15	8	8
P06	27	False	experiment	"Den miljøteknologiske indsats inden for klimatilpasning er også afgørende. Det er vigtigt, at vi forstår at udnytte vores klimaindsats, så vores erhvervsliv kan generobre en international styrkeposition."	"NO QUESTION"	NA	.	-1	-1	5758	1323	16	8	8
P06	28	False	experiment	"Inden for kort tid nedsætter vi et stærkt hold af kompetente mennesker i en taskforce, der skal hjælpe med at få omsat gode ideer til konkrete handlinger og sørge for, at arbejdet skrider fremad."	"NO QUESTION"	NA	.	-1	-1	4635	1323	17	8	8
P06	29	False	experiment	"Med i taskforcen er også et rejsehold, som etableres i starten af 2012. Det bliver et team af eksperter, som kan rådgive kommuner og virksomheder lokalt. Miljøministeriet har rigtig gode erfaringer med rejsehold fra vindmølleområdet. Ifølge en undersøgelse fra 2010 svarede 93 procent af de kommunale medarbejdere, der blev interviewet, at de var tilfredse eller meget tilfredse med kontakten til vindmøllesekretariatet."	"Spørgsmål:\nKommer rejseholdet fra affaldshåndteringsområdet?"	2	2	5602	1	14296	1323	18	8	8
P06	30	False	experiment	"I løbet af 2012 begynder regeringen at rydde de første lovmæssige barrierer af vejen. Som I sikkert alle ved, vedtog Folketinget for et par år siden en helt ny lov for regulering af vand- og spildevandsforsyningerne – Vandsektorloven. Jeg ved godt, at I ikke ligefrem elsker den lov, men den rummer faktisk mange gode initiativer, hvis vi tilrettelægger det rigtigt."	"NO QUESTION"	NA	.	-1	-1	15256	1323	19	8	8
P06	31	False	experiment	"Som miljøordfører fulgte jeg med i forhandlingerne af præmisserne for loven, og der er ingen tvivl om, at det ikke var hensigten med loven, at den skulle bremse mulighederne for at investere i klimatilpasning eller gennemføre andre miljømæssige initiativer. Tværtimod var hensigten at høste det potentiale for effektivisering, som fandtes i sektoren, og at udnytte det til gavn for miljøet, til investeringer i sektorens infrastruktur – blandt andet kloakrenovering – eller til lavere priser for forbrugerne."	"NO QUESTION"	NA	.	-1	-1	20210	1323	20	8	8
P06	32	False	experiment	"Nu, hvor vi har set, hvordan loven virker i praksis, må vi konstatere, at der er brug for nogle meget skarpe regler omkring beslutning af miljø- og servicemål. Da loven blev forhandlet på plads, var alle enige om at evaluere loven efter tre år. Men jeg mener, at problemerne med miljø- og servicemål er så presserende, at vi bør starte arbejdet med de nødvendige lovændringer nu, En anden vigtig melding er, at regeringen vil sikre en hurtig implementering af direktivet. Det betyder, at risikoområder udpeges af staten her lige om lidt – inden 22. december 2011."	"NO QUESTION"	NA	.	-1	-1	19800	1323	21	8	8
P06	33	False	experiment	"Der er i det hele taget dukket nye behov op. For eksempel har både kommuner og forsyningsselskaber længe efterspurgt et regnvandsbidrag, som motiverer grundejerne til at sende regnvandet ned i jorden eller samle det sammen og for eksempel bruge det til havevanding senere – i stedet for at sende det hele direkte i kloakken. Det vil spare spildevandsforsyningen for at bruge penge på at udbygge kloaknettet."	"NO QUESTION"	NA	.	-1	-1	17439	1323	22	8	8
P06	34	False	experiment	"Der har også været et ønske om, at vi ser på snitfladerne mellem det takstfinansierede og det skattefinansierede område, så nye løsninger på konsekvenserne af skybrud kan finansieres over taksterne. For eksempel har Københavns Kommune spurgt til muligheden for at kunne takstfinansiere forhøjelse af kantsten og ændrede vejprofiler, der bortleder regnvandet, når der kommer et skybrud."	"NO QUESTION"	NA	.	-1	-1	11812	1323	23	8	8
P06	35	False	experiment	"Vi vil også se på planområdet, og der er allerede initiativer i støbeskeen. Jeg vil gå efter, at planloven skal ændres, så I i kommunerne får mulighed for at lægge vægt på klimamæssige hensyn i lokalplanlægningen. I dag kan I kun lokalplanlægge med en arkitektonisk eller funktionel begrundelse."	"Spørgsmål:\nKan kommunerne - på tidspunktet for talen - tage højde for klimamæssige hensyn i lokalplanerne?"	2	2	5515	1	11392	1323	24	8	8
P06	36	False	experiment	"Med alle de nye muligheder i hånden er det så op til jer lokalt at lave nogle gode, langsigtede planer for klimatilpasningen. Derfor vil jeg forpligte jer som kommuner til at lave klimatilpasningsplaner inden for de næste to år. Det er nu, I har muligheden for at udarbejde en gennemtænkt plan for de mange og langsigtede udfordringer og investeringer, der uundgåeligt vil komme de kommende år."	"NO QUESTION"	NA	.	-1	-1	11867	1323	25	8	8
P06	37	False	experiment	"Benyt chancen for at tænke synergieffekter ind fra starten og etabler et godt samarbejde på tværs af fagområder og kommunegrænser – og mellem kommune og forsyning. Det er nu, platformen brænder, og alle er parate til at handle anderledes og finde nye veje at gå."	"NO QUESTION"	NA	.	-1	-1	9123	1323	26	8	8
P06	38	False	experiment	"Fra statslig side skal vi selvfølgelig nok definere nærmere, hvad planen skal indeholde. Og rejseholdets fornemmeste opgave bliver at rådgive kommunerne om opgaven. Nu har jeg fortalt jer om en masse lovinitiativer, som vi planlægger at tage med i klimapakken."	"NO QUESTION"	NA	.	-1	-1	10301	1323	27	8	8
P06	39	False	experiment	"Der kan efterfølgende vise sig behov for yderligere initiativer. Vi vil selvfølgelig se på resultatet af dialog med interessenter, på rejseholdets opsamling og erfaringer og på den generelle udvikling af viden under taskforcen."	"Spørgsmål:\nEr rejseholdet en del af taskforcen?"	1	1	4339	1	8878	1323	28	8	8
P06	40	False	experiment	"Jeg håber, at jeg med mit oplæg har fået understreget, at regeringen vil noget med klimatilpasning. Det er slut med at fedtspille. Som sagt er nøgleordene for regeringens arbejde på dette felt: Fra viden til handling gennem dialog og samarbejde. Jeg er helt sikker på, at vi i den proces, vi nu sætter i gang, i samlet flok vil få en masse nye ideer, som ingen endnu har tænkt på."	"NO QUESTION"	NA	.	-1	-1	9920	1323	29	8	8
P06	41	False	experiment	"Aksel Larsen, som stiftede det parti, jeg selv kommer fra, sagde engang: 'Man skal ikke løfte fanen så højt, at benene ikke kan nå jorden.' Jeg sagde i starten, at vi løfter fanen højt. Men vi gør det ikke uden at bevare jordforbindelsen. Lad os komme i gang med arbejdet, så vi bliver fri for at skovle mere vand ud af kældrene i fremtiden. Jeg håber, I vil være med hele vejen."	"NO QUESTION"	NA	.	-1	-1	10308	1323	30	8	8
P06	42	False	experiment	"NY TALE BEGYNDER NU"	"NO QUESTION"	NA	.	-1	-1	5358	7797	-1	8	8
P06	43	False	experiment	"Det er bålet, der om lidt fanger vore øjne, selv om aftenen er lys. Vi samles om bålet, som vore forfædre har gjort i årtusinder, siden isen forsvandt fra vore breddegrader. De tændte bål for at varme sig. De tændte bål for at holde de vilde dyr væk. De tændte bål for at advare mod fjender. Bålet varmer. Det fortærer. Det udsletter sig selv. Det ligner os mennesker. Der brænder en ild i os. Vi brænder hver især for noget, og vi brænder ud til sidst. "	"NO QUESTION"	NA	.	-1	-1	15771	7797	0	8	8
P06	44	False	experiment	"Hvis vi ikke brænder for noget, så kan vi lige så godt lægge os til at dø. Det er ilden i os, der er vores bestemmelse og giver livet mening. Det er kærlighedens ild. Og hadets ild, desværre. I pinsesalmerne skriver Grundtvig om Helligånden som 'tunger af ild og dog prædiken mild' og om, at 'Tungen gløder, hos hedninger såvel som jøder'. Og i fædrelandssalmen skriver han om ilden som symbol på ånden – i dette tilfælde Helligånden, som er billedet på det åndelige, på det, der adskiller mennesker fra dødt ler. Han bruger ilden som symbol på det, vi i dag kalder sammenhængskraften i et land, som han kaldte 'Kærlighed til fædrelandet'."	"NO QUESTION"	NA	.	-1	-1	27982	7797	1	8	8
P06	45	False	experiment	"Derfor hvad end verden siger og hvad verdensmagten vil,\nStår og falder jordens riger dog med kærlighedens ild,\nHvor den blusser, bor livsgrøden,\nHvor den slukkes, hersker døden."	"NO QUESTION"	NA	.	-1	-1	14468	7797	2	8	8
P06	46	False	experiment	"Både mennesker og lande står og falder med den ild. Ilden er de store følelser. Det er alt det, der ikke forandrer sig over tiden. Det er den, vi finder hos de store dramatikere, selv om deres værker er oldgamle. Shakespeare, Dostojevski, Ibsen, Kaj Munk. De vigtigste ting i tilværelsen forandrer sig ikke. Vi, der er samlet om bålet, har alle de væsentlige ting fælles med dem, der stod og sad om bålet i tidligere tider. Bålet blev også brugt til at bekæmpe ondskaben."	"NO QUESTION"	1	.	-1	-1	18010	7797	3	8	8
P06	47	False	experiment	"Derfor brændte man hekse på bålet – især på den tid, da Christian den Fjerde levede - i 1600-tallet. Han klagede over, at der blev brændt for få hekse. Han ville fordrive det onde. Alene i en enkelt lille by i Norge blev der brændt et stort antal hekse. Chr. IV mente, det måtte være heksenes skyld, når der var misvækst, kolde somre og isvintre. De var skyld i, at han tabte alle sine krige – og blev svigtet af sin elskede (Kirstine Munk)."	"Spørgsmål:\nGav Christian IV - ifølge taleren - hekse skylden for kolde somre?"	1	1	3769	1	15186	7797	4	8	8
P06	48	False	experiment	"'Hver by har sin heks, og hvert sogn sine trolde.' Det har digteren Holger Drachmann ret i. Sådan er det fortsat. Men vi brænder dem ikke. For, som Suzanne Brøgger siger om sig selv: 'Tidligere brændte man heksene på bålet. Nu udgiver man deres bøger!' Det kan man da kalde en tilståelse! Men i stedet for bål har vi så fået medier. I mediernes flammehav fortæres både skyldige og uskyldige, hekse og godtfolk, der ikke passer på. I visse medier, og især i de sociale medier, kan løgne trives og spredes, fordi de ikke bliver imødegået."	"NO QUESTION"	NA	.	-1	-1	21496	7797	5	8	8
P06	49	False	experiment	"Det viser værdien af medier, der lever op til sandhedskrav. Det viser værdien af direkte personkontakt og autentiske oplevelser. Og det forklarer, hvorfor danskerne i stærkt stigende tal strømmer til festivaler, folkemøder, biblioteker, museer osv. De vil have autentiske oplevelser, møde det virkelige frem for mediernes tyggemad. "	"NO QUESTION"	NA	.	-1	-1	9714	7797	6	8	8
P06	50	False	experiment	"Ved I for resten, hvad forskellen er på Vorherre og en journalist? – Vorherre tror ikke, at han ikke er journalist! – Forstod I den! Nu sidder så Mette Frederiksen og forhandler og forhandler. Hun kommer til at sande, som USA's præsident Bill Clinton engang sagde: 'At være politisk leder er som at bestyre en kirkegård. Man har mange under sig, men ingen hører efter!'"	"NO QUESTION"	NA	.	-1	-1	23402	7797	7	8	8
P06	51	False	experiment	"Men lad os her ved bålet glæde os over vores herlige land og den herlige, uforudsigelige sommer. 'Snart kolde farver i sky og vand – snart nøgne piger ved hver en strand.' 'Og stundom ud af din fulde glød / sprang lyn fra skyen i jordens skød.' 'Byger, som går og kommer. Det er den danske sommer.' Jeg stod engang ved et sankthansbål ved Øresund og snakkede med en svensker. Da vi havde sunget 'Danmark nu blunder den lyse nat', som er blevet kåret til Danmarks bedste sang, udbrød han pludselig til min overraskelse: 'Den er jo nationalistisk!' Og sandt nok, den nævner Danmark i hvert andet vers."	"NO QUESTION"	NA	.	-1	-1	21154	7797	8	8	8
P06	52	False	experiment	"Men hvad er der galt i det? Må man heller ikke elske sine forældre, søskende og kærester? Hvad har han mon tænkt sidste lørdag, da Dannebrog fyldte 800 år, og landet flød over med rød-hvide flag og uendelige kærlighedserklæringer? "	"NO QUESTION"	NA	.	-1	-1	8024	7797	9	8	8
P06	53	False	experiment	"– Vi kan jo ikke gøre for, at det danske flag er det smukkeste i verden! Det er jo så gammelt, at vi fik lov at vælge først, før de øvrige mere spraglede nordiske korsflag. Kærligheden til flaget og fædrelandet er jo ikke vendt mod nogle andre. Det er et korsflag. Korset står for tilgivelse og åbenhed over for andre."	"NO QUESTION"	NA	.	-1	-1	12434	7797	10	8	8
P06	54	False	experiment	"Vi har lov at være glade for vores land, når blot det ikke går ud over andre. Vi skal huske dem, der ofrede sig, for at vi kan være frie, og dem, der sled og slæbte, for at vi kunne komme så vidt, som vi er. Vi overlevede nederlagene til Sverige i 1600-tallet, til England i Napoleonskrigene, hvor vi mistede Norge, og til Preussen i 1864. Vi overlevede den kolde krig med Sovjet. Vi så Berlinmuren falde. Polen rev sig fri, og de baltiske lande genopstod. Vi vil også overleve, at England nu vender os og Europa ryggen. Og vi vil overleve, at USA måske engang ikke mere er garanten for vores sikkerhed. Men Putins aggression i Ukraine får det til at løbe koldt ned ad ryggen. "	"NO QUESTION"	NA	.	-1	-1	21258	7797	11	8	8
P06	55	False	experiment	"Nu må vi gentænke hele forsvarspolitikken, ikke mindst med tanke på Arktis, der ikke må være et tomrum, der frister Putin. Her er det oplagt med et nordisk samarbejde, som vi burde udvikle langt stærkere. Sammen er vi store. Vi har verdens største handelsflåde tilsammen, og vores samlede nationalprodukt kan måle sig med Ruslands. Lad os lægge småstatsmentaliteten bag os. Efter Sovjetunionens og Berlinmurens fald har vi meldt os ind i verden. Danske fly opererer uden for landets grænser. Med massiv opbakning i befolkningen. Vi er aktivistiske, med alt hvad det indebærer. For når man melder sig ind i verden, kan man også komme til skade."	"NO QUESTION"	NA	.	-1	-1	18689	7797	12	8	8
P06	56	False	experiment	"Jeg forstår godt, nogen spørger: Skulle vi ikke bare lade hele Mellemøsten sejle i egen sø? – De, der kritiserede indsatsen i Irak, de har jo så fået deres vilje, når det gælder Syrien, hvor vi har forholdt os passive. Og det gik jo endnu værre! Da vi greb ind, gik det galt. Og da vi ikke greb ind, gik det også galt! Mon ikke regeringsforhandlingerne også handler om forsvaret – det amerikanske krav om, at vi skal bruge to procent på forsvaret. Jeg husker en tidligere forhandling med De Radikale, hvor den radikale ordfører slog i bordet: 'I får ikke nye raketter, før I har brugt de gamle!' Vi ved ikke, hvad det næste bliver."	"NO QUESTION"	NA	.	-1	-1	20116	7797	13	8	8
P06	57	False	experiment	"Om endnu en terroraktion vil lykkes. Om det går galt et eller andet sted. Det vigtigste er, at vi ikke dør af skræk og tryghedsnarkomani. Vi kan ikke eliminere enhver risiko. 'Det, vi især skal frygte, er frygten selv', sagde den amerikanske præsident Roosevelt. Det tænker jeg dagligt på, når Rigsdagsgården på Christiansborg lukker for trafik, og når man skal tage sin livrem af i lufthavnens sikkerhedskontrol. Er det ikke lige netop den frygt, terrorister gerne vil skabe? Vi må for alt i verden ikke gå i panik over klimaudfordringen. 'I want you to panic', siger 16-årige Greta Thunberg. Men det er et dårligt råd."	"Spørgsmål:\nCiterer taleren Harry S. Truman for at sige: 'Det, vi især skal frygte, er frygten selv'?"	2	2	4899	1	21796	7797	14	8	8
P06	58	False	experiment	"Lad os i stedet tage udfordringen som en kærkommen anledning til at forske og udvikle os til nye energikilder og nye måder at lagre og spare energi. Danmark har de allerbedste forudsætninger for at gå foran og tilmed tjene penge på det. Lad os ikke blive tryghedsnarkomaner. Vore muligheder er fantastiske, fordi vi har en tillidskultur med utallige ildsjæle i foreningsdanmark, frivilligdanmark og højskoledanmark. Ildsjælene, det er dem, vi skal tænke på, når bålet nu tændes og blusser op og til sidst brænder ned. Og til alle ildsjælene vil jeg sige, som min gamle forstander på Askov Højskole, når han gik hjem og havde fået lidt inden for vesten: 'Herren velsigne og forbavse jer!'"	"NO QUESTION"	NA	.	-1	-1	26266	7797	15	8	8
P06	59	False	experiment	"NY TALE BEGYNDER NU"	"NO QUESTION"	NA	.	-1	-1	1021	1165	-1	9	9
P06	60	False	experiment	"Denne her tale er til alle jer derude, der ligesom mig, er ulykkelige og dybt forgældede. Det er Sankt Hans, om lidt skal vi brænde en heks af, forestil jer at det var jeres gæld der blev brændt af, eller jeres dårlige vaner og triste minder. Forestil jer at man én gang om året kunne tage en pose med rudekuverter og dårlige vaner med sig ned på sletten eller stranden eller hvor det nærmeste bål nu er, og kaste det i flammerne. Forestil jer at der var en anden verden, uden alle jeres problemer, som man kunne træde over i, vupti, så var alt det forfærdelige væk."	"Spørgsmål:\nFøler taleren ubehag ved rudekuverter?"	1	1	2549	1	15488	1165	0	9	9
P06	61	False	experiment	"Jeg har én episode, eller man kunne kalde det en periode i mit liv, jeg som det første ville se at komme af med. Da jeg var yngre løj jeg mig til at være læge. Det gør jeg ikke længere. Jeg havde en dum, dum oplevelse i mine tyvere hvor jeg mødte en sød pige og ikke blot løj mig ældre, men også til at være på niende semester. Det virkede. Jeg ville have hendes opmærksomhed og jeg fik den. Det var ligesom at spille kvartfinale til et EM i fodbold: hvis man er bagud til sidst, så ofrer man alt, uanset om det så koster et gult kort. Hvis det så til gengæld lykkes, og man havde et gult i forvejen, ja, så er man slet ikke med i næste kamp, hvilket jo kan føles ekstremt uretfærdigt."	"NO QUESTION"	NA	.	-1	-1	21714	1165	1	9	9
P06	62	False	experiment	"Sådan gik det for mig, for ikke nok med at jeg fik hendes opmærksomhed, jeg fik også en date og en mere og jeg fik aldrig helt fortalt hende at jeg slet ikke var læge, men på dagpenge. Og selvfølgelig skete det værste, der overhovedet kunne ske, på vores, ja måske var kun den femte date. Vi havde spadseret rundt om søerne, hånd i hånd, det hele føltes perfekt, jeg elskede hende virkelig højt og hun elskede mig, og vi gik mod Fælledparken hvor der skulle være det store sankthansbål og vi gik helt tæt sammen, imens vi nærmede os en lille flok mennesker der stod midt på stien."	"NO QUESTION"	NA	.	-1	-1	13786	1165	2	9	9
P06	63	False	experiment	"Vi skulle selvfølgelig møve os ind imellem dem, men det var ikke en tryllekunstner som jeg havde forventet. Der lå en ung mand i løbetøj på jorden og tog sig til hjertet imens han hev efter vejret. Jeg behøvede ikke at vente på at min kæreste skubbede mig frem til ham, jeg vidste hvad der ventede mig, og jeg vidste at jeg ikke ville miste hende. Det var ligesom at stå overfor et barn i en kanal: man tager ikke hjem og finder badebukserne frem først. Så jeg satte mig på hug ved manden og vendte ham om på ryggen."	"NO QUESTION"	NA	.	-1	-1	19560	1165	3	9	9
P06	64	False	experiment	"Jeg kunne høre min kæreste lyve for mig. 'Han er læge', sagde hun, selvom hun udmærket godt vidste at jeg kun gik på niende semester. Og jeg gav ham hjertemassage og tjekkede hans puls og jeg nikkede indforstået til ambulancefolkene da de ankom."	"NO QUESTION"	NA	.	-1	-1	6121	1165	4	9	9
P06	65	False	experiment	"Og min kæreste var så stolt, da vi gik derfra, arm i arm. Jeg var bare rystet og i chok, og jeg vidste, at nu var der ingen vej tilbage. Hvis jeg ville fortsætte forholdet, og fortsætte med at være lykkelig, måtte jeg forlade den ene verden og alt hvad den indeholdt af familie og venner, og kun leve i den verden hvor den mig, som hun havde forelsket sig i, levede. Og jeg vidste også at det var umuligt, at jeg jo ikke gik til forelæsninger på Panum, men i stedet gik på biblioteket for at læse tegneserier og aviser, når vi kyssede hinanden farvel om morgenen."	"NO QUESTION"	NA	.	-1	-1	16796	1165	5	9	9
P06	66	False	experiment	"Jeg bliver stadig utilpas når jeg tænker på ham løberen og jeg kan mærke hans brystkasse i mine hænder. Og jeg ville ønske at jeg kunne smide den følelse på bålet."	"NO QUESTION"	NA	.	-1	-1	3974	1165	6	9	9
P06	67	False	experiment	"Har I prøvet at cykle hurtigt imens I hører noget musik I virkelig godt kan lide? Man kan blive helt høj af det. Man kommer simpelthen et andet sted hen, hvor der ikke er nogen regninger eller dårlige minder der presser sig på. Og nu tænker I: 'shit, han er ude i noget nyreligiøst pjat', men hvorfor lukke ned bare fordi det lugter af overtro? Vi skal alle sammen sætte ild til et bål i aften hvor der står en heks på toppen. Hvis det ikke er en anden verden, så ved jeg ikke hvad det er."	"Spørgsmål:\nKan taleren forestille sig en bedre verden end sin egen virkelighed?"	1	1	3516	1	13257	1165	7	9	9
P06	68	False	experiment	"Det jeg bare prøver at sige er, at der findes mange forskellige verdener og at vi selv vælger hvilken vi vil leve i. Jeg valgte engang at være læge og måtte tage konsekvenserne. I har valgt at leve i en verden hvor I kun er lykkelige hvis I er gældfri og slanke og har gode jobs. Og I tager konsekvenserne hver dag i form af sorg, ulykke og ondt i maven. Jeg kunne have fået pigen, hvis jeg var læge. Men det er jeg ikke. Jeg kunne måske have fået hende alligevel, hvis jeg havde været ærlig og sagt at jeg ikke havde noget job. Vi kunne måske alle sammen være lykkelige, hvis vi var rige og gældfri. Men det er vi ikke. "	"NO QUESTION"	NA	.	-1	-1	19462	1165	8	9	9
P06	69	False	experiment	"Vi sidder i gæld til halsen med klimakriser og finanskriser og inkompetente politikere og voksne der vil være børn og store, væmmelige firmaer, der ejer vores kroppe og sjæle. Den verden, vi prøver at bilde os selv ind at vi lever i, eksisterer ikke, og kommer heller aldrig til det. Jeg bliver aldrig læge. Jeg ved ikke engang hvor pigen er i dag. Vi bliver aldrig gældfrie og perfekte, og vi ved ikke engang hvordan det ville være."	"NO QUESTION"	NA	.	-1	-1	19376	1165	9	9	9
P06	70	False	experiment	"Faktisk er det ikke helt sandt, det jeg siger nu. Jeg har været tæt på at være gældfri i 2007. I samme periode var jeg også tæt på at bryde mig om mit udseende og lige ved at kunne lide mit arbejde. Det var ikke lige så chokerende som mødet med løberen i Fælledparken, men det var tæt på. Det var forfærdeligt. Det var jo slet ikke mig! Jeg kunne ikke kende mig selv. Men heldigvis gik der kun et par måneder, så var jeg tilbage på det nedadgående spor igen."	"NO QUESTION"	NA	.	-1	-1	11899	1165	10	9	9
P06	71	False	experiment	"Det er Sankt Hans. Dagene bliver kortere og nætterne bliver mørkere. Og det er ikke jeres regninger I skal smide på bålet, hvis I vil have det bedre. Det er jeres forestillinger om hvad der sker, når de ikke findes længere, som I skal af med. Og når I kommer af med dem, så kan I begynde at leve sammen med os andre i den verden vi også lever i."	"Spørgsmål:\nMener taleren at det vil hjælpe på ens velbefindende at brænde sine regninger?"	1	2	4793	0	10397	1165	11	9	9
P06	72	False	experiment	"Løberen døde. I er i live. Det er skattereformen også. Og hvis I synes det er noget snavs, så husk at der er en stor demonstration imod de blårøde og deres uhæderlige verdener i dag klokken 16 foran Finansministeriet. Og nej, vi futter ikke Bjarne Corydon af. Der er simpelthen ikke skaft nok mellem benene på ham til at vi kunne få ham til at sidde fast på bålet."	"NO QUESTION"	NA	.	-1	-1	15180	1165	12	9	9
P06	73	False	experiment	"God demo og god sommer."	"NO QUESTION"	NA	.	-1	-1	2263	1165	13	9	9
P06	74	False	experiment	"NY TALE BEGYNDER NU"	"NO QUESTION"	NA	.	-1	-1	1231	1318	-1	9	9
P06	75	False	experiment	"Det var en spand med grå, døde hummere på Gilleleje Havn, som endelig fik offentligheden til at indse, at landbruget ikke bare kunne gøde og sprøjte, så meget de ville. TV Avisens indslag i 1986 betød et vendepunkt i dansk miljøpolitik."	"NO QUESTION"	NA	.	-1	-1	10472	1318	0	9	9
P06	76	False	experiment	"Manglende ålegræs og døde hummere er ikke ligefrem noget at være stolte af. Til gengæld kan vi godt være lidt stolte af det, der skete i årene efter TV Avisens indslag. Der blev nemlig taget fat: Danmark fik sin første vandmiljøplan, og vi blev foregangsland på vandmiljøområdet. Der blev også sat gang i naturgenopretning og skovrejsning. Initiativer, der gav danskerne mange gevinster, blandt andet også bedre vandmiljø."	"NO QUESTION"	NA	.	-1	-1	10358	1318	1	9	9
P06	77	False	experiment	"Men hvis vi nu kun kigger 5 eller 10 år tilbage, så er der måske ikke så meget at bryste sig af mere. Vores vandmiljø har det stadig ikke godt nok, vores indsats er langsom og halvhjertet, og vi er for længst blevet overhalet af EU og vandrammedirektivet."	"Spørgsmål:\nMener taleren at det danske vandmiljø har det godt nok?"	2	2	2570	1	6926	1318	2	9	9
P06	78	False	experiment	"EU's vandrammedirektiv er faktisk inspireret af den tidlige danske vandmiljøindsats. Så det er lidt ironisk, at vi har haft så svært ved at følge op på EU's regler under den tidligere regering. Det kan vi gøre bedre, og det vil jeg gerne tage min del af ansvaret for: Vi skal stramme op. Vi skal ikke bare leve op til EU's regler. Vi skal også igen blive førende."	"NO QUESTION"	NA	.	-1	-1	18163	1318	3	9	9
P06	79	False	experiment	"Men hvad er der sket siden 1986? Hvad er behovet nu og her? Og hvordan får vi sammen Danmark tilbage i førersædet? Det vil jeg give mit bedste bud på de næste 10-15 minutter."	"NO QUESTION"	NA	.	-1	-1	5921	1318	4	9	9
P06	80	False	experiment	"Når vi gør status over miljøtilstanden, ser det heldigvis ikke helt sort ud alt sammen. Der er sket forbedringer. Udledning af næringsstoffer er blevet væsentligt reduceret. I de sidste par år har vi haft færre områder med iltsvind, og på steder, hvor der tidligere var iltsvind, er der de seneste år kommet flere bunddyr, og der er begyndende tegn på forbedringer også for ålegræsset."	"NO QUESTION"	NA	.	-1	-1	15978	1318	5	9	9
P06	81	False	experiment	"Men at tegnene på forbedring har været – og stadigvæk er – så langsomme om at slå igennem, viser netop, at vi har været i en situation, hvor vi har belastet miljøet så hårdt, at det er utroligt svært at vende tilbage til udgangspunktet. Økosystemernes robusthed er blevet nedbrudt, og balancerne er blevet forskudt."	"NO QUESTION"	NA	.	-1	-1	7825	1318	6	9	9
P06	82	False	experiment	"Det tager rigtig lang tid at få bygget naturens systemer op igen. Vi kan ikke bare lade stå til. Vi kan heller ikke klare os med hurtige løsninger. Vi skal blive ved og ved og tænke store sammenhænge og langsigtet. Det kræver en kæmpe indsats, et godt samarbejde, en bred forståelse for hinandens problemer, en god dialog og en innovativ udvikling af ny teknologi."	"NO QUESTION"	NA	.	-1	-1	10330	1318	7	9	9
P06	83	False	experiment	"Hvis vi for et kort øjeblik ser tilbage, fik vi allerede i 1981 de første varsler på, at der var noget galt i de danske farvande, hvor vi oplevede omfattende fiskedød og iltsvind flere steder. I 1985 kom der så en handlingsplan for kvælstof, fosfor og organisk stof. Men det var først med de døde hummere i Kattegat i 1986, at der for alvor blev sat gang i debatten om vores vandmiljø, og det blev til ikke mindre end tre vandmiljøplaner i årene 1987-2004."	"NO QUESTION"	NA	.	-1	-1	13263	1318	8	9	9
P06	84	False	experiment	"Vandmiljøplan I og II rummede en bred indsats over for rigtig mange kilder: landbrug, industri, by-spildevand, dambrug og havbrug. Nu skete der noget. Der blev etableret rensningsanlæg ved byerne, store vådområder dukkede op i det danske landskab, og der blev påbegyndt en regulering af landbrugets udledninger. Og den regulering gælder stadig og den virker."	"NO QUESTION"	NA	.	-1	-1	12637	1318	9	9	9
P06	85	False	experiment	"Vandmiljøplan III fra 2004 fokuserede på en endnu bredere indsats for at nedbringe landbrugets påvirkning af vandmiljøet. De to første vandmiljøplaner er blevet gennemført og fik god effekt, men vandmiljøplan III fik aldrig den effekt, der var tilsigtet, og der er sket en kraftig neddrosling af indsatsen for vandmiljøet siden da."	"NO QUESTION"	NA	.	-1	-1	15335	1318	10	9	9
P06	86	False	experiment	"Hvor står vi nu? Nu har udledningen fra industrien fået en fornuftig regulering, by-spildevandet bliver renset, og forureningen fra landbruget er reduceret væsentligt. Landbrugets forurening er dog stadig meget markant, når vi snakker om vandmiljø, og det er vores helt store udfordring. Det er den udfordring vi særligt skal tage fat om i de kommende vandplaner. Og der skal gøres en fornyet indsats for at få gennemført spildevandshåndtering i spredt bebyggelse."	"Spørgsmål:\nMener taleren at udledningen fra industrien er fornuftigt reguleret?"	1	2	7988	0	21005	1318	11	9	9
P06	87	False	experiment	"Hvad vil vi gerne have? Vi skal have en sammenhængende indsats i forhold til Danmarks vandmiljø med vandløb, søer, vådområder, fjorde, hav og grundvand. Vandet skal flyde rent og naturligt igennem enge, vådområder, skove og et velfungerende bæredygtigt landbrugsland og ende i rene fjorde og kystvande. Vi skal have nogle sammenhængende og naturlige økosystemer, med naturlige processer og naturlig dynamik, hvor vi får genoprettet balancer og robusthed i systemerne. Her skal være plads til vandets naturlige bevægelse og fluktuationer og plads til vandmiljøets sammenhæng og samspil med de tilgrænsende arealer."	"Spørgsmål:\nMener taleren at havmiljøet er være en del af den sammenhængende indsats for Danmarks vandmiljø?"	1	1	8561	1	18308	1318	12	9	9
P06	88	False	experiment	"Derfor er jeg også rigtig glad for at kunne sige, at der over de næste to år er afsat yderligere 159 millioner kroner til at etablere flere store vådområder. Disse vådområder – søer og våde enge – skal være med til at sikre, at Danmark får et bedre miljø, reducere kvælstofkoncentrationen og give en rigere natur. Samtidig kan de være med til at opsamle regn under skybrud og give gode friluftsoplevelser. Vådområder er et rigtig godt middel til at løse flere ting på engang. Det er sådan nogle virkemidler, vi skal have fat i. Vi skal i det hele taget bruge vores hoveder og finde mange flere virkemidler. Randzoner, ådale og nye skove er rigtig gode virkemidler, som jeg glæder mig til at sætte mit præg på."	"NO QUESTION"	NA	.	-1	-1	20678	1318	13	9	9
P06	89	False	experiment	"Men hvad vil regeringen gøre? Her må jeg dele det op i tre dele, nemlig: her og nu, om et øjeblik – og lige straks. Her og nu må vi få vedtaget vandplanerne i en fart. Om et øjeblik – eller to – går vi i gang med at arbejde imod en fuld gennemførelse af EU's Vandrammedirektiv og Natura 2000-direktiverne, og i 2012 skal Havstrategidirektivets basisanalyse og miljømål være på plads. Og lige straks går vi i gang med det visionære: en mere overordnet grøn omstilling af Danmark."	"NO QUESTION"	NA	.	-1	-1	18125	1318	14	9	9
P06	90	False	experiment	"Jeg vil tage til Bruxelles og drøfte forventningerne til den fremadrettede indsats med miljøkommissæren. EU-formandskabet er også vigtigt, når det drejer sig om at gøre landbrugspolitikken og tilskudsordningerne 'grønnere'. Fødevareministeren og jeg vil presse på for at få tilskudsordninger, der på bedste vis kan hjælpe os til at nå visionære mål for vandmiljø og natur."	"NO QUESTION"	NA	.	-1	-1	18012	1318	15	9	9
P06	91	False	experiment	"Jeg sidder jo nu som ny minister og er nødt til at sende nogle vandplaner ud, som jeg ikke selv har lavet. Tro mig, de ville have set noget anderledes ud, hvis jeg havde været minister i de år, de er blevet til i. Skulle jeg så stoppe dem? Nej, for vi er allerede stærkt forsinkede."	"NO QUESTION"	NA	.	-1	-1	10716	1318	16	9	9
P06	92	False	experiment	"Nu er det vigtigt, at de kommer ud, og at vi kommer i gang med at gennemføre den indsats, der trods alt er i udkastene til planerne. Og det er en stor miljøsejr, at de vandplaner overhovedet kommer i gang. Med de kommende generationer af vandplaner og de nye havstrategier skal vi nok anstrenge os for at komme videre, så vi kan nå miljømålene. Vi må og skal leve op til kravene i EU's direktiver. Men det skal selvfølgelig gøres på den bedste måde og uden at lukke hverken landbruget eller industrien i Danmark."	"NO QUESTION"	NA	.	-1	-1	13719	1318	17	9	9
P06	93	False	experiment	"Vi nedsætter derfor en uafhængig natur- og landbrugskommission, som effektivt skal tage fat på løsningen af landbrugserhvervets miljømæssige udfordringer. Ikke mindst i forhold til natur- og vandmiljøindsatsen. Men også klimaindsatsen kommer til at indgå i kommissionens arbejde."	"NO QUESTION"	NA	.	-1	-1	9108	1318	18	9	9
P06	94	False	experiment	"Regeringen vil på den baggrund fremlægge en køreplan for fuld gennemførelse af EU's vandrammedirektiv og Natura 2000-direktiverne, så Danmark kommer tættere på en rettidig gennemførelse af vand- og naturplanerne. Det er også nødvendigt, hvis Danmark skal kunne bidrage til at gennemføre den europæiske vand- og naturlovgivning i hele EU. Ikke mindst under Danmarks EU-formandskab. Og det er i høj grad intentionen: Når Danmark sidder i formandsstolen, vil vi kæmpe for at få en grøn omstilling af EU højt på dagsordenen."	"NO QUESTION"	NA	.	-1	-1	2746	1318	19	9	9
P06	95	False	experiment	"Men hvordan kan man overhovedet tale om at tage et større hensyn til miljøet, når verden står midt i en økonomisk krise? Her siger vi i regeringen, at det er netop det, vi skal tale om. For vi har i virkeligheden to kriser: en økonomisk krise og en klima- og miljøkrise. Vores klode kan ikke klare presset på ressourcer og på klimaet, hvis vi bliver ved med at forbruge og forurene i det tempo, vi ser nu. Derfor er det tydeligt for mig og resten af regeringen, at de to kriser skal løses sammen. Og miljøet er nøglen til at løse flere af de økonomiske problemer, vi står med lige nu. Det er jeg overbevist om. Hvis vi får skabt en bæredygtig vækst, der udnytter ressourcerne bedre og udvikler ny miljøteknologi, kan vi både hjælpe miljøet og økonomien."	"NO QUESTION"	NA	.	-1	-1	27492	1318	20	9	9
P06	96	False	experiment	"Regeringen ønsker at få Danmark tilbage i front, når det kommer til bæredygtige løsninger, både i industrien, i landbruget og i byerne. Danmark skal være et grønt demonstrationsland. Her skal nye teknologier udvikles og afprøves, så de bliver efterspurgt globalt. Det skal for eksempel være her, den nyeste biogasteknologi udvikles. Det er ikke alene godt for klimaet, når landbruget laver gas i stedet for gyllespredning."	"NO QUESTION"	NA	.	-1	-1	11689	1318	21	9	9
P06	97	False	experiment	"Det kan også give god økonomi og nye eksportmuligheder. Der er masser af muligheder i grøn omstilling. Men det kræver en nytænkning og en dedikeret tilgang til projekterne. Vi vil også fortsat sikre mere natur og skov. Den grønne omstilling handler i høj grad også om at give naturen mere plads for også at styrke vores velfærd. Det kræver også, at rammerne tillader det og motiverer det."	"NO QUESTION"	NA	.	-1	-1	9901	1318	22	9	9
P06	98	False	experiment	"Derfor vil jeg gå i dialog med jer, med landbruget, med industrien og med andre, der har fingeren i jorden, for at finde frem til en miljøregulering, der lige præcis peger i den rigtige retning uden at lægge hindringer i vejen for en grøn omstilling. Jeg kan med glæde konstatere, at dambrugsområdet nu får en intelligent regulering til gavn for miljø, teknologiproducenter og erhverv. Her opnås en reduktion af organisk materiale til vores vandløb og søer samtidig med at produktionen øges og erhvervet styrkes."	"NO QUESTION"	NA	.	-1	-1	15286	1318	23	9	9
P06	99	False	experiment	"Det er bare et eksempel på en vej at gå, for vi kan ikke bare betale os til flotte løsninger – og slet ikke nu, hvor statskassen praktisk talt er tom. Vi skal bruge vores hoveder, og 100.000 hoveder tænker bedre end et. Derfor skal både landbrug, miljøorganisationer, embedsmænd, forskere, virksomheder og finansfolk lægge hovederne i blød og dele deres tanker og ideer med hinanden."	"NO QUESTION"	NA	.	-1	-1	10932	1318	24	9	9
P06	100	False	experiment	"Langsigtede visioner, fri kreativitet, nye veje og samarbejde på tværs skal være i højsædet. Og visioner skal ikke bare være noget, vi snakker om ved festlige lejligheder. De skal føre til handling. Senere på ugen håber jeg at kunne præsentere de nye vand- og naturplaner. Der sker noget nu, og det vil jeg glæde mig over på vandmiljøets og naturens vegne. Og jeg vil efterfølgende lytte til jeres ideer til, hvad vi skal lægge vægt på, når vi forbereder næste runde af vandplaner. "	"NO QUESTION"	NA	.	-1	-1	18272	1318	25	9	9
P06	101	False	experiment	"Min egen personlige vision som minister handler derfor om at føre en bred dialog og udvikle et godt samarbejde. Netop derfor vil jeg sige til alle interesseorganisationerne, at nu har I en regering, der lytter til gode forslag og ideer. Så læg dem endelig på bordet, så vi kan få et konstruktivt samarbejde – både om de næste generationer af vandplaner og om alt det andet lige fra døde, grå hummere til sprællevende bævere og bisoner."	"NO QUESTION"	NA	.	-1	-1	17655	1318	26	9	9
P06	102	False	experiment	"NY TALE BEGYNDER NU"	"NO QUESTION"	NA	.	-1	-1	2813	10440	-1	6	6
P06	103	False	experiment	"Jeg vil også gerne byde jer velkommen her til årets Erhvervs-Get-Together, hvor vi skal lytte, lære og tale sammen om det erhvervsliv, vi alle på den ene eller anden måde er en del af. Vi har to spændende foredragsholdere med os i dag. De vil tale om lederskab og om fremtidens arbejdsmarked. To emner, der må siges at være mere end relevante for os alle. Og jeg vil bruge anledningen til at komme ind på netop de emner nu, hvor jeg har ordet."	"NO QUESTION"	NA	.	-1	-1	15541	10440	0	6	6
P06	104	False	experiment	"Det blæser ofte en del i Frederikshavn. Sådan er det jo ved kysten. Og af og til rammes vi af modvind. Også i overført betydning. Vi har hørt det før. Gang på gang faktisk. Kommunen står over for en række udfordringer, vi må og skal håndtere. Det er ikke noget nyt. Og det er ikke noget, der kan slå os i jorden, hvis vi står sammen. Der er modvind, om man vil, lokalt."	"NO QUESTION"	NA	.	-1	-1	12443	10440	1	6	6
P06	105	False	experiment	"Der er udfordringer, når vi ser på kommunernes økonomi – også i Frederikshavn Kommune. Der er udfordringer, når vi ser på kommunens demografiske udvikling med færre unge og flere ældre. Der er udfordringer, når vi ser på arbejdsstyrken og særligt alle dem, der står uden for den."	"NO QUESTION"	NA	.	-1	-1	9683	10440	2	6	6
P06	106	False	experiment	"Kigger vi op og ud. Kigger vi længere frem og internationalt, så står vi, vores børn og vores børnebørn – som en del af verdenssamfundet – over for miljømæssige udfordringer af proportioner, der kan være svære helt at begribe. Havstigning, forurening, global opvarmning. Det trækker op til storm ude i horisonten. Et uvejr, som vi ikke kan gå udenom, men som vi må gå igennem. Sammen."	"Spørgsmål:\nMener taleren at forurening er en af de store udfordringer som vi må gå i møde?"	1	2	6764	0	16172	10440	3	6	6
P06	107	False	experiment	"Når et skib rammes af en brandstorm, så kommer det og dets mandskab kun uskadt ind til kysten, hvis kaptajnen bliver på broen og viser vejen gennem vandmasserne. At turde blive på broen, når bølgerne hamrer ned over dækket. Det er lederskab. Lederskab er at stå for det, man tror på, selvom der er modstand. At turde tage de svære beslutninger, som kan have alvorlige konsekvenser, når beslutningerne er nødvendige."	"NO QUESTION"	NA	.	-1	-1	16567	10440	4	6	6
P06	108	False	experiment	"Hvis vores virksomheder skal være konkurrencedygtige og forblive det, hvis vi skal gøre os forhåbninger om at tiltrække flere internationale medspillere på erhvervsfronten, så må og skal vi sikre os adgang til grøn energi. Virkeligheden kræver handling – både for vores egen og kommende generationers skyld. Derfor var det nødvendigt at kæmpe for vindmølle-testanlægget ud for vores kyst. Det projekt er det langt fra alle, som kan se fornuften i her og nu. Men de færreste kan benægte, at det er fornuftigt, hvis vi retter blikket ud og fremad."	"NO QUESTION"	NA	.	-1	-1	14273	10440	5	6	6
P06	109	False	experiment	"Hvis vi kigger fremad, så kan vi nok også godt få øje på fornuften i at satse på et destinationsselskab. Hvis vi vil bevare vores styrkeposition i turismeindustrien og forbedre den, så må vi alliere os med nabokommuner. Vi må sætte vores ambitionsniveau sammen med andre. Når der har været et økonomisk merforbrug i kommunens arbejdsmarkedscenter på mere end 30 millioner kroner, så skal der også tages svære beslutninger. Der skal tages afsked med værdsatte medarbejdere. Det er ikke nemt. Men det skal gøres. Lederskab er at turde gå forrest gennem udfordringerne. Lederskab er at vise vejen."	"NO QUESTION"	NA	.	-1	-1	17955	10440	6	6	6
P06	110	False	experiment	"Jeg håber, at I vil være med til at vise vejen. Jeg tror på, at I tør gå forrest, når det gælder de af vores medborgere, som står uden for arbejdsmarkedet. Nej, det er ikke alle, der vil. Og det er ikke alle, der kan. Men der er mange med uudnyttede evner i vores kommune, som drømmer om at få det, I har. Et job at stå op til. En værdig plads i samfundet med kollegaer. Det at drikke dagens første kop kaffe på arbejdspladsen og se frem mod de opgaver, den byder på. Opgaver, der giver mening."	"NO QUESTION"	NA	.	-1	-1	17092	10440	7	6	6
P06	111	False	experiment	"Under valgkampen sagde direktøren for TDC noget, der gjorde mig glad. Han sagde, at landets virksomheder skal tage et samfundsansvar – et socialt ansvar. Han sagde, at de, virksomhederne, er en del af samfundet og skal tage deres del af byrden. For et samfund er først og fremmest et fællesskab."	"NO QUESTION"	NA	.	-1	-1	9169	10440	8	6	6
P06	112	False	experiment	"Det gør mig glad og stolt, når Danish Crown i Sæby ansætter 97 flygtninge og indvandrere, uddanner dem og giver dem et eksistensgrundlag. Det gør mig glad, når man hos M.A.R.S. her i Frederikshavn forpligter sig til at tage imod langtidsledige, til at lære dem op og vise dem ind på arbejdsmarkedet. Det gør mig glad, når vores turisthus råber sine medlemmer op og opfordrer dem til at kontakte Frederiksavn Kommune, når de mangler hænder."	"NO QUESTION"	NA	.	-1	-1	14090	10440	9	6	6
P06	113	False	experiment	"Vi er her for at hjælpe jer. Og vi håber, I vil hjælpe os og de af vores borgere, der har brug for en kyndig hånd. Move North har i de to år, rekrutteringsindsatsen har eksisteret, skaffet 50 nye specialister til vores virksomheder. Tag fat i Move North, når I mangler ingeniører, maskinmestre og andre teknisk kyndige. Arbejdsmarkedscenteret kan hjælpe jer med at skaffe resten. Tag fat her, når I mangler råstyrken. Når I mangler dem, der kan løfte kabeltromlerne, groft sagt. "	"NO QUESTION"	NA	.	-1	-1	15134	10440	10	6	6
P06	114	False	experiment	"Støt op om kampen for at få alle med. Så styrker I hele kommunen, og så styrker I jeres virksomhed. Jeg tror på, at man bliver stærkere af at hjælpe dem, der er svagere. Så styrker vi også det billede, vi viser resten af landet, når vi inviterer pressen hertil for at fortælle om vores indsats. Vis vejen for dem, der ikke har fundet den selv. Så vil vi gå sammen med jer."	"NO QUESTION"	NA	.	-1	-1	19088	10440	11	6	6
P06	115	False	experiment	"Nok er der udfordringer. Nok har vi en kamp, vi skal vinde. Men vores historie viser, at vi har en evne til at overleve. Det ligger i vores DNA. Værfter og andre virksomheder lukker. Kriser rammer os. Men vi rejser os. Altid. Vi står igennem og vi bliver stærkere. Vi står gennem stormen. Vi lader den ikke blæse os omkuld. Og vi har også tænkt os at overleve nu. Vi har tænkt os at overleve sammen. Der er allerede kommet god vind i sejlene."	"NO QUESTION"	NA	.	-1	-1	14640	10440	12	6	6
P06	116	False	experiment	"NY TALE BEGYNDER NU"	"NO QUESTION"	NA	.	-1	-1	2010	17526	-1	6	6
P06	117	False	experiment	"Kære studenter\nI dag er en festdag! I dag har jeg fornøjelsen af at skulle dimittere jer som studenter fra Gribskov Gymnasium, men inden vi når så langt, har jeg muligheden for at få jeres fulde opmærksomhed og give jer et par bevingede ord med på vejen."	"NO QUESTION"	NA	.	-1	-1	5700	17526	0	6	6
P06	118	False	experiment	"I har nu været på Gribskov Gymnasium i 3 år – jeg har kun været her et halvt år, så jeg kender ikke jer alle sammen så godt, men jeg vil gerne sige tusind tak til jer alle sammen for den imødekommende og positive modtagelse, I har givet mig."	"NO QUESTION"	NA	.	-1	-1	6690	17526	1	6	6
P06	119	False	experiment	"I har de sidste tre år været med til at skabe en skole med en særlig rummelighed og sammenhold. Undervejs i de tre år er I blevet udfordret fagligt: I har måtte kæmpe jer vej igennem myriader af tekster og utallige skriftlige opgaver, som I nu kan se tilbage på og tænke på som delelementer i den stærke faglighed, I nu besidder. I har været aktive og engagerede både i den daglige undervisning og i skolens øvrige liv: I har peppet hverdagen op med kreative indslag til morgensamling, debatteret med iver til elevrådsarrangementer og mange af jer har hvert år i januar kæmpet for at få skolekomedien klar til premieren."	"NO QUESTION"	NA	.	-1	-1	25392	17526	2	6	6
P06	120	False	experiment	"I har været elever på et lokalt gymnasium, men I har også fået globalt udsyn. Mange af jer har været på besøg hos vores partnerskoler rundt om i verden og 5 af jer skal til Kina i sommerferien for at undervise i engelsk på summer school. "	"NO QUESTION"	NA	.	-1	-1	7931	17526	3	6	6
P06	121	False	experiment	"I den sidste måned har I svedt over skriftlige og mundtlige eksamener og jeres eksamensresultater viser, at I har suget fagligheden til jer og har fået stort udbytte af undervisningen – det skal I være stolte over og glade for."	"NO QUESTION"	NA	.	-1	-1	6596	17526	4	6	6
P06	122	False	experiment	"Som studenter fra Gribskov Gymnasium har I fået en faglig uddannelse af meget høj kvalitet. I har også (uden måske altid at opdage det) fået en helt særlig almendannelse. Faglighed og almendannelse går hånd i hånd. Almendannelse betyder for mig, at man ved, at man ikke ved alt, men at man er vidende om verdens mangfoldighed og at man er interesseret i den. Almendannelse er også, at man kan huske særlige faglige begreber (uden nødvendigvis at kunne huske alle deltaljerne)."	"Spørgsmål:\nEr dette en tale for studenter fra Søndersø Gymnasium?"	2	2	3263	1	13451	17526	5	6	6
P06	123	False	experiment	"Måske vil I altid huske begreber som integraler og vektorer. Måske kan I i søvne genkalde jer det periodiske system. Måske vil I bære rundt på brudstykker af litteratur, som f.eks. strofer fra 9. Sang i Homers Iliaden, så som: 'Ham gensvarede Achilles den helt med det hurtige fodtrin: Ætling af Zeus! Leartes’s Søn! Odysseus du snilde! Bladet fra mund jeg tage nu bør frimodig, og sige, hvad jeg mener og hvad der forsand fuldbyrdet skal vorde,'. Eller måske vil den første linje i Allen Ginsbergs klassiske digt 'Howl' for altid være indprentet i jeres hukommelse: 'I saw the best minds of my generation destroyed by madness, starving hysterical naked'. "	"NO QUESTION"	NA	.	-1	-1	23498	17526	6	6	6
P06	124	False	experiment	"Nu ved jeg godt, at litteratur ikke læses som fornøjelse af alle unge i dag, eller som én af jer skriver i den skriftlige danske eksamensopgave fra den 22. maj: '... på gymnasierne bliver eleverne tvunget – ja, de fleste unge mennesker mener faktisk, at det er tvang – til at læse forskellige litterære klassikere...”. Jeg tror, at hvis ikke I var blevet 'tvunget' til at få udfordret jeres horisont både litterært, fagligt og videnskabeligt – så ville I ikke have fået en almendannelse. I kom ind i på Gribskov Gymnasium som elever og I går ud som studerende besiddende en helt unik kombination af faglighed og almendannelse, som netop kendetegner studenter fra danske gymnasier."	"NO QUESTION"	NA	.	-1	-1	19542	17526	7	6	6
P06	125	False	experiment	"Jeg vil benytte lejligheden til at opfordre jer til nu, når I forlader gymnasiets trygge rammer at kaste jer ud i livet; I skal opleve verden, prøve jer selv af, begå fejltrin og lære af dem. Det kan virke skræmmende for måske ved I slet ikke, hvad I gerne vil prøve – og det er helt ok ikke at vide det. Men hvis I bare er nysgerrige, så I har muligheden for at prøve mange forskellige ting – nyd det!"	"NO QUESTION"	NA	.	-1	-1	12130	17526	8	6	6
P06	126	False	experiment	"Fra alle sider får I tudet ørene fulde af, at I skal skynde jer at komme videre i uddannelsessystemet – I får (igen og igen) at vide, at I skal vælge rigtigt første gang. Sabbatår italesættes som 'spildtid'. I får at vide at det maksimum er 2 år, I må være væk fra det etablerede uddannelsessystem (jeg var 'væk' fra det etablerede uddannelsessystem i 5 år, hvor jeg lavede gøgl og teater, men det er da gået ok sidenhen). I vil i fremtiden blive mødt af flere ord som Produktivitetskommission og Fremdriftsreform. Den slags ord brugt i uddannelsesverdenen beskriver tiltag, som har til formål at få jer hurtigere igennem uddannelsessystemet. Og ydermere så må det ikke være sjovt, men det skal være hårdt at uddanne sig. Men hårdt og sjovt er ikke modsætninger. "	"NO QUESTION"	NA	.	-1	-1	24213	17526	9	6	6
P06	127	False	experiment	"Det at kæmpe for noget, det at arbejde fagligt med svært stof i et fag er (eller bør være) sjovt og stimulerende og bør skabe nysgerrighed. Jeg håber, at I vil huske jeres tid her på Gribskov Gymnasium som nogle hårde, men gode og sjove år. Jeg tror på, at hvis man trives og er glad for det man laver, så lærer man mere – det ene udelukker ikke det andet. Og det skal I holde fast i uanset, hvad I måtte vælge at lave fremover."	"NO QUESTION"	NA	.	-1	-1	16174	17526	10	6	6
P06	128	False	experiment	"Hvis I ved, hvad I vil studere, så kast jer ind i de videregående studier. Hvad enten det er korte, mellemlange eller lange uddannelser, I vælger, så venter der mange gode oplevelser og udfordringer. Tag med studiet ud i verden (det er ikke kun muligt at rejse i et sabbatår – husk det). Hvis I overhovedet ikke aner, hvad I vil være, eller hvis I bare er lidt i tvivl om, hvad I gerne vil, så vil jeg ikke anspore jer til at skynde jer. I må gerne tage det stille og roligt. For det kan også være godt at gøre noget langsomt. Jeres forældre har måske sagt til jer at 'det er sundt at kede sig' – og det er der en vis sandhed i. I kunne f.eks. bare udfordre jer selv: slukke mobil og Facebook en enkelt dag, og se hvad der så sker uden konstante digitale forstyrrelser."	"NO QUESTION"	NA	.	-1	-1	23717	17526	11	6	6
P06	129	False	experiment	"Måske kunne der ske det, at I fik stoppet op og tænkt over, hvad I egentlig vil. Hvis I ikke ved, hvad I brænder for, så tag jer tid til at finde ud af det - for selv om det kan gøre vejen længere og måske langsommere, end det der forventes af jer, så fører det at gøre noget, man brænder for, altid til uventede nye muligheder. Intet af det I kommer til at opleve, må I betragte som 'spildtid'. I suser måske glade og fornøjede igennem det etablerede uddannelsessystem og ender med en ph.d.-stilling på et internationalt universitet, men det kan også være, at I tager en omvej og kommer til at klippe får i Australien, bliver vikarer på folkeskoler, tager et par år i Netto og så bliver globetrottere og rejser verden rundt."	"NO QUESTION"	NA	.	-1	-1	18464	17526	12	6	6
P06	130	False	experiment	"Måske får I et par sæsoner som skibumser i alperne, eller måske tager I på højskole og spiller musik, maler, laver teater og får – som de siger i reklamen - venner for livet. Uanset hvad I gør, vil I altid få erfaringer (både gode og dårlige), som I kan tage med jer."	"NO QUESTION"	NA	.	-1	-1	9732	17526	13	6	6
P06	131	False	experiment	"Jeg vil nu tale om to begreber, som det for mig er vigtigt, at I altid holder jer for øje; uanset, hvad I måtte komme til at lave: hvad enten I læser videre med det samme eller senere; hvad enten I skal arbejde eller rejse; hvad enten I har en helt klar plan for fremtiden eller overhovedet ikke aner, hvad I skal. Det ene begreb er 'glæde' og det andet begreb er 'mod', og disse to begreber er for mig at se tæt forbundne."	"NO QUESTION"	NA	.	-1	-1	13849	17526	14	6	6
P06	132	False	experiment	"Begrebet 'glæde' beskriver en værdi, som I selv skal finde ud af at definere. Det som giver mig 'glæde”, er ikke nødvendigvis det, som giver jer 'glæde'. I skal undersøge, hvornår I føler 'glæde' og kæmpe for, at I får så meget 'glæde' i jeres liv som overhovedet muligt. Det gælder både i det daglige og på den lange bane. Find ud af hvad der gør jer glade, tænk over, hvordan I kan dyrke dette og overvej, hvordan jeres videre færd ud i uddannelsessystemet og livet kan understøtte det, som I selv definerer som 'glæde'."	"NO QUESTION"	NA	.	-1	-1	14044	17526	15	6	6
P06	133	False	experiment	"At arbejde med det som giver jer 'glæde”, kræver 'mod'. 'Mod' defineres i Den Danske Ordbog som 'mental eller moralsk styrke til at handle eller tale i en situation der kan være til fare eller skade for én selv'. Det vil sige at 'mod' kræver, at man tør 'gøre' eller 'sige' noget farligt. Etymologisk kommer ordet 'mod' fra oldnordiske ord for 'vrede'. Der ligger altså i ordet en særlig energi, en følelse og et engagement. Dette genfinder vi i det engelske ord for mod: 'courage', som kommer af det franske ord 'courage', der betyder 'hjerte, de inderste følelser, temperament'. 'Mod' udtrykker altså en indre styrke; det er en vilje til at ville noget. Ofte ville vi nok ikke tænke, at det kræver 'mod' at søge og dyrke 'glæde', eller for at sige det på en anden måde: at søge de 'gode' begivenheder."	"NO QUESTION"	NA	.	-1	-1	30269	17526	16	6	6
P06	134	False	experiment	"Men filosoffen Ole Fogh Kirkeby giver os denne mulighed, når han skriver: 'Måske er det i sidste instans de gode begivenheder, der kræver mere mandsmod?' (Begivenhedsledelse og Handlekraft, 2006, s 15). I skal altså turde se verden direkte i øjnene og turde tro på det gode og det som giver jer 'glæde'. Derved udviser I det, som Ole Fogh Kirkeby kalder 'handlekraft'. Og dette er kun muligt, hvis I ved, hvor I selv står. Det er kun muligt, hvis I ved, hvad der er vigtigt for jer og for jeres liv."	"NO QUESTION"	NA	.	-1	-1	19720	17526	17	6	6
P06	135	False	experiment	"Men at finde ud af det er ikke let, eller som en anden filosof, Simon Krohn, siger det: 'Det kan lyde så nemt, når man taler om at følge sit hjerte, men når det bliver konkret, og du skal gøre det i praksis, er det sjovt nok skræmmende. Det er faktisk tankevækkende, at det kan være lige så skræmmende at følge sit hjerte og gøre det, man ønsker allerdybest, som det er at se sine mørkeste dæmoner i øjnene.' (Nærmere Noget, 2013, s. 14). Det er altså ikke let at gøre det, man gerne vil. Det kræver mod, og det skal I huske. Bare fordi man godt kan lide noget, er det ikke enkelt at gøre det. Og ydermere vil I opleve, at det, der er vigtigt for jer, ikke er en statisk størrelse – det vil ændre sig over tid og derfor kræver det 'gode' kontinuerlig opmærksomhed."	"Spørgsmål:\nHenviser taleren til en bog der hedder 'Nærmere Ingenting'?"	2	2	4143	1	21154	17526	18	6	6
P06	136	False	experiment	"Når I ved, hvor I selv står (nu), hvad der giver jer glæde (nu), og I har modet til at følge det, så vil I også lettere kunne forstå, hvor andre mennesker står, og hvad der giver dem glæde og er vigtigt for dem. Med 'glæde' og 'mod' som pejlemærker er jeg derfor sikker på, at I hver især også altid vil kunne fortsætte med at skabe og deltage i særlige sammenhold (hvor I end kommer). Sammenhold som forhåbentlig bliver lige så stærke som det sammenhold, I været med til at skabe på Gribskov Gymnasium, og som er medvirkende til at skabe den helt særlige stemning (eller 'ånd', hvis vi skal være lidt højtragende), som jeg som udefrakommende med det samme oplevede var et særkende for Gribskov Gymnasium."	"Spørgsmål:\nMener taleren at sammenhold er et særkende for Gribskov Gymnasium?"	1	1	2722	1	18684	17526	19	6	6
P06	137	False	experiment	"Jeg håber, at I med glæde og mod vil udvise rummelighed overfor andre mennesker og sørge for ikke kun at tage hånd om jer selv, men også om alle de mennesker, som I endnu ikke kender, mennesker som I kommer til at rejse, studere, arbejde og leve sammen med."	"NO QUESTION"	NA	.	-1	-1	8735	17526	20	6	6
P06	138	False	experiment	"Undervejs i jeres liv vil I måske fare vild. I vil måske opleve det som den amerikanske kunstner William Fox har kaldt 'cognitive dissonance in isotropic spaces' (Macfarlane, The Old Ways, 2013, s.9), hvilket kan oversættes til følelsen af at fare vild i rum, der tilsyneladende ser ens ud i alle retninger. Denne følelse kan man have når man står i en ørken med sand i alle retninger eller er fanget i tåge i bjergene. Men jeg forestiller mig også at det kan være den følelse, I står med nu, hvor I har alle muligheder og alle muligheder måske ser ens eller lige gode ud. Hvad vej I går, er op til jer. Det kan være godt at fare lidt vild og det vil give jer en ballast, som I først opdager senere."	"Spørgsmål:\nRefererer taleren til William Fox?"	1	2	3113	0	19332	17526	21	6	6
P06	139	False	experiment	"For at komme videre fra gymnasiet skal I altså ud at gå på egen hånd. Jeg vil anbefale jer helt bogstaveligt at gå – det er en aktivitet, som altid fører til noget nyt, hvis I blot husker jeres nysgerrighed og begiver jer ud i det rum, der lige nu tilsyneladende ser ens ud i alle retninger. Så vil alle veje føre til nye steder, ny viden, nye oplevelser og nye erfaringer. I sin glimrende bog The Lost Art of Walking skriver forfatteren Geoff Nicholson således: 'Moderne litteraturteori ser en lighed mellem at gå og at skrive: en gåtur indskriver sig i rum på samme måde som ord indskriver sig i en tekst."	"NO QUESTION"	NA	.	-1	-1	20772	17526	22	6	6
P06	140	False	experiment	"Michel De Certeau skriver 'Handlingen at gå ... er fodgængerens tilegnelse af det topografiske system: det er en særlig udlevelse af rummet ... og det implicerer relationer mellem differentierede positioner'. Jeg synes at dette er en smart måde at sige, at det at gå er en måde at gøre verden til vores egen, og det at skrive er en anden – en ide der slår mig som uafviseligt sand' (The Lost Art of Walking, 2011, s. 33, min oversættelse)."	"NO QUESTION"	NA	.	-1	-1	25872	17526	23	6	6
P06	141	False	experiment	"I går nu ud af gymnasiet. I skal gå ud og gøre verden til jeres helt egen. Skridt for skridt skal I bevæge jer fremad – ikke altid i lige linjer, men måske ad om- og vildveje. Jeres pejlemærker både helt konkret på bjergstien, skovvejen, grusvejen, sandstranden, landevejen, fortovet og gågaden og i overført forstand i uddannelsesverdenen, arbejdslivet og privatlivet skal være 'mod' og 'glæde'. Og husk altid at uanset, hvilken vej I vælger at gå, vil I hele tiden tilføje nye lag til det solide fundament af faglighed og almendannelse, som I har fået her på Gribskov Gymnasium. I har nu taget det sidste skridt i gymnasiet – til det vil jeg blot sige: Godt gået!"	"NO QUESTION"	NA	.	-1	-1	23222	17526	24	6	6
P06	142	False	experiment	"Og med disse ord dimitterer jeg jer som studenter fra Gribskov Gymnasium 2014."	"NO QUESTION"	NA	.	-1	-1	2435	17526	25	6	6
