Session_Name_	Trial_Index_	Trial_Recycled_	condition	text	question	expected_key	QUESTION_KEY_PRESSED	QUESTION_RT	QUESTION_ACCURACY	SENTENCE_RT	speechid	paragraphid	counterbalance	LAST_COUNTERBALANCE
P09	1	False	practice	"NY TALE BEGYNDER NU"	"NO QUESTION"	NA	.	-1	-1	23877	1327	-1	0	0
P09	2	False	practice	"Hej alle sammen!"	"NO QUESTION"	NA	.	-1	-1	8299	1327	0	0	0
P09	3	False	practice	"Som I allerede ved, vil vi om lidt tænde for et bål, der vil brænde et skab af – det skab, vi har følt os begrænset af, indelukket i, og som de fleste af os er brudt ud af for at kunne blive lykkeligere."	"NO QUESTION"	NA	.	-1	-1	8466	1327	1	0	0
P09	4	False	practice	"'Men skabe er da ganske praktiske til opbevaring af mangt og meget, ikke sandt?' Jo, opbevaring af værdier, det er rigtigt – men når vi først begynder at sætte spørgsmålstegn ved disse værdier, så føles skabet mere og mere trangt, for det kan ikke rumme vores ideer og følelser mere."	"NO QUESTION"	NA	.	-1	-1	9893	1327	2	0	0
P09	5	False	practice	"'Jamen hvad er der i det skab?' Der er en opfattelse af at kvinder og mænd skal tænke, føle, klæde sig og handle forskelligt – fordi nogle er kvinder og andre er mænd. Kønsroller kalder vi det. Men det rækker faktisk meget længere end bare til roller, vi spiller – rollerne invaderer vores tanker og vores følelser, så vi næsten ikke kan tænke uden for rollen, så længe skabet omslutter os, og i hvert fald først og fremmest føler vi må tage hensyn til dem, der er i skabet..."	"Spørgsmål:\nMener taleren at kønsroller både påvirker hvordan vi handler og tænker?"	1	1	4787	1	18218	1327	3	0	0
P09	6	False	practice	"Når vi endelig bryder ud af skabet og for alvor viser og siger det, der ikke passer i det normative skab, kan vi godt opleve negative reaktioner – men så sandelig også positive – for vi er jo slet ikke alene!"	"NO QUESTION"	NA	.	-1	-1	8633	1327	4	0	0
P09	7	False	practice	"Der er nemlig andre som ligner os mere eller mindre, vi er en broget og mangfoldig flok i alle aldre, hudfarver, kulturelle baggrunde, med og uden handicap, med og uden tro, af forskellig politisk overbevisning, og – vigtigst for os her: af flere forskellige kønsidentiteter og seksuelle orienteringer."	"NO QUESTION"	NA	.	-1	-1	12027	1327	5	0	0
P09	8	False	practice	"Fælles for os er, at vi er en regnbueminoritet i forhold til flertallets skab – men det betyder ikke at majoriteten har ret. Vi vil udefra informere om, at der er andre måder at se tingene på, tilbyde et alternativt syn på livet og verden, som kan hjælpe nogle – især børn og unge – ud af et skab, de mistrives i."	"Spørgsmål:\nMener taleren at minoriteter bør tie med deres verdenssyn?"	2	2	3482	1	10570	1327	6	0	0
P09	9	False	practice	"Lad os brænde skabet med normerne, så vi frigøres fra dem og får retten til at være dem, vi faktisk er!"	"NO QUESTION"	NA	.	-1	-1	3858	1327	7	0	0
P09	10	False	experiment	"NY TALE BEGYNDER NU"	"NO QUESTION"	NA	.	-1	-1	1866	7856	-1	7	7
P09	11	False	experiment	"Kære alle, hvoraf de fleste nok primært er her, fordi de godt kan lide at kigge på et bål og kun sekundært for at høre en ti minutter lang tale fra en person, de ikke ved, hvem er. Jeg kan sige, at jeg heller ikke helt selv ved, hvem jeg er, men at jeg ved, at jeg hedder Anna. Nogle gange hedder jeg også Veronika Katinka. Det er mit alter ego. Det er dér, det bliver lidt forvirrende for mig, men i dag hedder jeg bare Anna, så lad os starte med det. At jeg hedder Anna, og at jeg er meget nervøs, selvom jeg læste retorik på universitetet i to år og derfor burde vide et og andet om at holde en båltale. "	"NO QUESTION"	NA	.	-1	-1	22129	7856	0	7	7
P09	12	False	experiment	"Fx har jeg lært af gode, gamle Obama, at det er godt lige at kommentere på noget i situationen, så det virker, som om man er til stede i situationen og ikke bare lirer noget af, man har forberedt forud for situationen, så det vil jeg selvfølgelig også gøre: (noget om vejret eller regnen eller lignende). Jeg har ikke de store minder forbundet med sankthansaften, hvilket jo gør mig til en oplagt taler på sankthansaften. Jeg kan faktisk kun huske sankthansaften sidste år, men det er nok fordi, at jeg blev indlagt på den lukkede på sankthansaften sidste år. Jeg havde, for nu at blive i aftenens tema, ukrudt i hovedet, der havde spredt sig så meget, at jeg simpelthen ikke havde lyst til at leve mere."	"NO QUESTION"	NA	.	-1	-1	24821	7856	1	7	7
P09	13	False	experiment	"En hurtig googlesøgning på 'båltale' lod mig forstå, at det er populært at citere fra Midsommervisen, når man holder båltale, så det vil jeg – som det originale menneske jeg er – selvfølgelig også gøre: 'Hver by har sin heks, og hvert sogn sine trolde' synger man, og det er nok fx mig, man refererer til, tænker jeg. Københavns egen lille heksetrold, en kodyl kombination af messias- og mindreværdskomplekser, en selvfed psykotisk cutter med ondt i mavsen, der efter 10 års kamp mod systemet endelig måtte se sig slået og spærret inde på Bispebjerg Hospital. Så dér lå jeg, på én af årets længste dage, og kiggede rundt i et rum, der bare var hvidt."	"NO QUESTION"	NA	.	-1	-1	22969	7856	2	7	7
P09	14	False	experiment	"Nogle gange, for adspredelsens skyld, gik jeg ud på mit lille badeværelse for at kigge på det store, sorte hul, der var i loftet, mens jeg sendte en kærlig tanke til den tidligere beboer, der enten havde forsøgt at hænge sig eller havde slået hul i bare frustration, og jeg forstod det egentlig godt. Min go-to-ting, når livet bliver svært, er tragikomik. "	"NO QUESTION"	NA	.	-1	-1	16659	7856	3	7	7
P09	15	False	experiment	"Det kan fx være, når man midt i valgkampen erfarer, at Rasmus Paludan ligner live-action-udgaven af Karlsson på taget og griner lidt af det. Det kan også fx være, når ens nabo på den lukkede får en guitar ind på den lukkede, men så kun kan spille åbningsriffet fra Sweet Home Alabama, hvilket han så kompenserer for ved til gengæld at spille det konstant og over det hele på den lukkede."	"NO QUESTION"	NA	.	-1	-1	13301	7856	4	7	7
P09	16	False	experiment	"Det kan man også grine lidt af, indtil man erfarer, at tragedien nogle gange vinder, fordi ens nabo på den lukkede om natten smører sit værelse på den lukkede ind i egen afføring. Jeg går ud fra, at det var i frustration – eller også blev han bare træt af hvidt i hvidt. Og jeg forstod det egentlig godt. Jeg var ikke indlagt ret længe af den simple årsag, at jeg slet ikke var syg nok, men det forunderlige ved at have været indlagt er, at folk så, modsat tidligere, står klar til at hjælpe én. Så det seneste år har jeg fx fået hjælp til at luge ud i mit hoved, godt hjulpet på vej af den antipsykotiske medicin Abilify, der abilifyer mig til at gøre sjove ting, såsom fx at sidde på en stol i mere end ti minutter ad gangen eller at have samtaler med mennesker uden at tænke på, hvordan de mon ville se ud, hvis deres øjne var tomater. "	"NO QUESTION"	NA	.	-1	-1	33722	7856	5	7	7
P09	17	False	experiment	"Altså på mange måder et kedeligere liv, men et liv jeg, modsat tidligere, gerne vil leve. Da jeg fandt ud af, at jeg skulle holde denne her båltale, og at temaet til arrangementet var ukrudt, var min umiddelbare indskydelse at tale om, at man måske skulle prøve at se på det smukke i ukrudt, her forstået som en virkelig corny metafor for det grimme i ens hoved. "	"NO QUESTION"	NA	.	-1	-1	16028	7856	6	7	7
P09	18	False	experiment	"Man kan luge og luge, men ukrudtet kommer altid tilbage, og derfor kan man måske lige så godt slutte fred med det, fordi det også, på en måde, er smukt. Lad mig forklare: Mit indre følelsesliv er i vid udstrækning som en flad leverpostejsmad. Jeg er meget sjældent glad, for det meste har jeg det jævnt under middel, så når jeg endelig bliver rigtigt ked af det, får ukrudt i hovedet, tænker grimme tanker, er det en form for forløsning. Jeg føler mig i live, fordi jeg føler noget."	"NO QUESTION"	NA	.	-1	-1	13825	7856	7	7	7
P09	19	False	experiment	"Alt bliver forkert, men alt bliver smukt, derfra hvor jeg står. Måske fordi jeg føler, at jeg oplever alting for sidste gang. Da jeg præsenterede den tankegang for min kæreste, kiggede han uimponeret på mig og påpegede, at livet lidt er som at have en have, som man er tvunget til at passe og forholde sig til, fordi man af uransagelige årsager ikke kan vælge at bo i lejlighed. Hvis ikke man gør noget aktivt, så gror den til. Ukrudtet slår rødder, og blomsterne dør, og man vil jo ikke have, at blomsterne dør – blomsterne er her en metafor for glæde – for man vil vel være glad, det må være dét, der er målet."	"NO QUESTION"	NA	.	-1	-1	23173	7856	8	7	7
P09	20	False	experiment	"Jeg kiggede på ham og sagde desperat: 'Men man har jo brug for Triste', med reference til Disneys geniale film 'Inside Out', der i min fortolkning handler om, at det er okay at være ked af det, men som i min kærestes fortolkning handler om, at ingen kan eksistere uden Glæde. Så nu er jeg lidt forvirret. Jeg har i lang tid forsøgt at acceptere og elske Triste, fordi Glæde langt hen ad vejen er en by i Rusland for mig. Jeg ved ikke, hvordan man gør, og det gør det svært at stræbe efter. Og jeg har tænkt, at det var en vigtig kamp at være sådan lidt 'se mig, jeg græder', fordi jeg ikke synes, at der er plads til Triste i dagens Danmark, måske fordi jagten på Glæde er blevet som jagten på det næste Den Store Bagedyst."	"NO QUESTION"	NA	.	-1	-1	32408	7856	9	7	7
P09	21	False	experiment	"Men måske er det bare mig. Måske er det bare mig, der synes, at vi mangler et sprog for den sorg, det er, når nogen dør eller gerne vil dø, eller den sorg det er, når nogen mister deres ungdom eller hele liv til en forkert krop, eller den sorg det er, når alt bare er forkert hele tiden."	"NO QUESTION"	NA	.	-1	-1	11299	7856	10	7	7
P09	22	False	experiment	"Noget tyder dog på, at det ikke bare er mig. I hvert fald har hver femte i den arbejdsdygtige alder psykiske problemer, og det provokerer mig, at et på mange måder kollektivt problem, der ifølge OECD årligt koster Danmark 110 milliarder kroner, skal løses individuelt ved, at individet bare begynder at tage noget medicin eller at gå til psykolog, så individet kan komme tilbage på arbejde igen, så vi kan holde det samfund i gang, der jo godt kunne tænkes at være en del af problemet."	"NO QUESTION"	NA	.	-1	-1	13449	7856	11	7	7
P09	23	False	experiment	"Jeg tænker tit, at det er svært at være menneske, og at man måske – på samfundsplan – burde tale lidt mere om, at det er svært at være menneske, så det måske ville blive lidt mindre ensomt at være et svært menneske, men fordi jeg er en løsningsorienteret pleaser, og fordi jeg fik nok af andre folks gode råd, besluttede jeg mig i forbindelse med denne tale for at løse alle mine problemer individuelt, og én gang for alle, ved at google noget i retningen af: 'Hvordan fixer man alle sine problemer'. Jeg endte hos Psykiatrifonden, hvis formand påpegede, at det: 'handler om at finde værdi i det, man har'. "	"NO QUESTION"	NA	.	-1	-1	18442	7856	12	7	7
P09	24	False	experiment	"'Nå', tænkte jeg, 'var det bare det', tænkte jeg, før jeg lige bagefter tænkte, at det jo stemte meget godt overens med mit forsøg på at finde værdien i Triste, og så havde jeg det godt med mig selv, fordi jeg ligesom havde knækket koden, indtil jeg kom til at tænke på, at hvis man nu fx har mistet sine nøgler et sted på Nørrebrogade, så vil man nok hellere lede efter de nøgler end at finde værdi i, at man stadig har et æble nede i sin skoletaske, som man selvfølgelig sagtens kunne dele med én af sine nærmeste og så bare være sådan lidt 'fuck de dér nøgler, nu spiser vi to bare æble og hygger os'."	"NO QUESTION"	NA	.	-1	-1	24913	7856	13	7	7
P09	25	False	experiment	"Men et eller andet sted dybt dernede i selvhadet, der føler man, at man fortjener at kunne komme hjem igen. Måske føler man, at også man fortjener Glæde. At også man fortjener den sol, der skinner på én, at også man fortjener de fødder, man kysser om morgenen, at også man fortjener grillparties og vild natur. Men når nu man bare er en lille heksetrold, er det selvfølgelig lidt demotiverende at næste linje i Midsommervisen går: 'Dem vil vi fra livet med glædesblus holde', og her på sankthansaften kan man jo så tænke lidt over, om alting var lettere i gamle dage, hvor man simpelthen bare satte ild til lortet. Til samfundets ukrudt, heksene, de anderledes, dem, der ville være mere, end deres køn berettigede til, eller dem, der ikke var glade og normale nok. Puf, og så gik samfundets dårlige samvittighed op i røg."	"NO QUESTION"	NA	.	-1	-1	31368	7856	14	7	7
P09	26	False	experiment	"Guderne skal da vide, at jeg nogle gange har lyst til at gøre det samme med mig selv og mit ukrudt i hovedet, bare lige finde sådan en stor, fed ukrudtsbrænder, og så bare gå amokkacino ud over det hele. Men det finurlige er jo, at ukrudtet altid finder sin vej igen, ligesom blomsten også finder sin vej igen. For man skal pleje og passe de blomster, man har fået tildelt, men samtidig kan man jo bruge hele sit liv på at luge al ukrudt i den have, der er life, i forsøget på at få den fin og ligusteragtig, eller også kan man embrace, at der altid vil være lidt tilbage og så prøve på at insistere på det smukke i dét. At insistere på, at Triste og Glæde ikke er hinandens modsætninger, men hinandens forudsætninger. Det har jeg i hvert fald tænkt mig, næste gang jeg bliver deprimeret."	"NO QUESTION"	NA	.	-1	-1	24889	7856	15	7	7
P09	27	False	experiment	"Slutteligt vil jeg gerne sige, at det sgu trods alt er at foretrække at ligge i et hvidt rum på den lukkede og lytte til indledningen af Sweet Home Alabama, end det er at ligge på toppen af en stor stak kvas og vente på, at ilden tager fat. Bispebjerg er bedre end Bloksbjerg, det er dejligt at bo i et samfund, hvor man hjælper folk i stedet for at brænde dem, og selvom hver by har sin heks og hvert sogn sine trolde, som vi fra livet med glædesblus vil holde, så er jeg her altså endnu, og det er jeg oprigtigt taknemmelig for. Tak."	"Spørgsmål:\nNævner taleren at have været indlagt på Sankt Hans Hospital?"	2	1	4981	0	17844	7856	16	7	7
P09	28	False	experiment	"NY TALE BEGYNDER NU"	"NO QUESTION"	NA	.	-1	-1	1231	10365	-1	7	7
P09	29	False	experiment	"Kære smukke studenter, kære forældre og kære lærere\nSikke mange flotte hvide huer. Hvor er I et smukt syn. Det er kun tre år siden, I stod her i denne hvide bygning for første gang med folkeskolen i rygsækken og sommerfugle i maven, for nu startede et nyt kapitel. Der er sket meget på de tre år, og I tænker formentlig, at tiden er fløjet afsted. Nu står I her efter intens eksamenslæsning."	"NO QUESTION"	NA	.	-1	-1	15307	10365	0	7	7
P09	30	False	experiment	"Utroligt stolt, meget lettet og lidt træt. Sådan tænker jeg, at I har det lige nu. Stolt af at have gennemført. Lettet over at eksamensræset er overstået for denne gang. Og lidt træt på grund af den megen eksamenslæsning med alt for korte nætter og muligvis også lidt for meget fest de seneste dage."	"Spørgsmål:\nForestiller taleren sig at studenterne har festet de seneste dage?"	1	1	2874	1	9827	10365	1	7	7
P09	31	False	experiment	"Og I har god grund til at være stolte, for det er en vigtig milepæl i jeres liv, som I nu har rundet. Jeg husker, at jeg var lykkelig, da jeg blev student. Jeg havde en oplevelse af, at hele verden lå foran mig. Og ved I hvad? Hele verden ligger også foran jer. Grib livet. Det skal nok gå godt. For der er behov for jer."	"NO QUESTION"	NA	.	-1	-1	8595	10365	2	7	7
P09	32	False	experiment	"Vi ser i dag en politisk polarisering i bl.a. USA og Frankrig, og vi mærker den også herhjemme. Verden bliver fremstillet sort-hvid. Det bekymrer mig. For svaret på samfundets problemer er lige præcis ikke sort og hvidt. Det er nuancer og balancer. Og det ved I mere end nogen andre. Vær på vagt, når nogen serverer enkle løsninger på komplekse ting. For sådan fungerer verden ikke."	"NO QUESTION"	NA	.	-1	-1	12575	10365	3	7	7
P09	33	False	experiment	"Verden bliver ikke bedre af at fjerne jøder og kommunister, som Hitler ville. Verden bliver ikke bedre af at slå dem ihjel, som ikke har samme Gud som én selv, som Islamisk Stat vil det. Og verden bliver heller ikke et bedre sted af at forbyde Islam, som Rasmus Paludan vil det. Der er altid flere nuancer til det, øjet lige ser."	"NO QUESTION"	NA	.	-1	-1	12241	10365	4	7	7
P09	34	False	experiment	"Makrel, som var præsident for rockerbanden Bullshit tilbage i 80’erne – Bullshit var den rockerbande, der blev udraderet af Hells Angels – han skrev digte og syede tøj til sin kæreste. En ung mand, der ligesom mange andre af Bullshits medlemmer, var blevet svigtet som børn af de voksne omkring dem."	"NO QUESTION"	NA	.	-1	-1	19329	10365	5	7	7
P09	35	False	experiment	"Når man ser nærmere på en problematik, så viser der sig oftest flere facetter. Jeg vil på ingen måde forsvare rockerbander og den kriminalitet, de begår. Jeg siger blot, at der kan være flere sider af en sag. Og der kan være grunde til, at ting opstår. Det gør dem ikke nødvendigvis mere rigtige, men det er vigtigt at prøve at forstå."	"NO QUESTION"	NA	.	-1	-1	8836	10365	6	7	7
