Session_Name_	Trial_Index_	Trial_Recycled_	condition	text	question	expected_key	QUESTION_KEY_PRESSED	QUESTION_RT	QUESTION_ACCURACY	SENTENCE_RT	speechid	paragraphid	counterbalance	LAST_COUNTERBALANCE
P01	1	False	practice	"NY TALE BEGYNDER NU"	"NO QUESTION"	NA	.	-1	-1	3176	1327	-1	0	0
P01	2	False	practice	"Hej alle sammen!"	"NO QUESTION"	NA	.	-1	-1	1630	1327	0	0	0
P01	3	False	practice	"Som I allerede ved, vil vi om lidt tænde for et bål, der vil brænde et skab af – det skab, vi har følt os begrænset af, indelukket i, og som de fleste af os er brudt ud af for at kunne blive lykkeligere."	"NO QUESTION"	NA	.	-1	-1	14906	1327	1	0	0
P01	4	False	practice	"'Men skabe er da ganske praktiske til opbevaring af mangt og meget, ikke sandt?' Jo, opbevaring af værdier, det er rigtigt – men når vi først begynder at sætte spørgsmålstegn ved disse værdier, så føles skabet mere og mere trangt, for det kan ikke rumme vores ideer og følelser mere."	"NO QUESTION"	NA	.	-1	-1	18447	1327	2	0	0
P01	5	False	practice	"'Jamen hvad er der i det skab?' Der er en opfattelse af at kvinder og mænd skal tænke, føle, klæde sig og handle forskelligt – fordi nogle er kvinder og andre er mænd. Kønsroller kalder vi det. Men det rækker faktisk meget længere end bare til roller, vi spiller – rollerne invaderer vores tanker og vores følelser, så vi næsten ikke kan tænke uden for rollen, så længe skabet omslutter os, og i hvert fald først og fremmest føler vi må tage hensyn til dem, der er i skabet..."	"Spørgsmål:\nMener taleren at kønsroller både påvirker hvordan vi handler og tænker?"	1	1	7620	1	31760	1327	3	0	0
P01	6	False	practice	"Når vi endelig bryder ud af skabet og for alvor viser og siger det, der ikke passer i det normative skab, kan vi godt opleve negative reaktioner – men så sandelig også positive – for vi er jo slet ikke alene!"	"NO QUESTION"	NA	.	-1	-1	16439	1327	4	0	0
P01	7	False	practice	"Der er nemlig andre som ligner os mere eller mindre, vi er en broget og mangfoldig flok i alle aldre, hudfarver, kulturelle baggrunde, med og uden handicap, med og uden tro, af forskellig politisk overbevisning, og – vigtigst for os her: af flere forskellige kønsidentiteter og seksuelle orienteringer."	"NO QUESTION"	NA	.	-1	-1	19606	1327	5	0	0
P01	8	False	practice	"Fælles for os er, at vi er en regnbueminoritet i forhold til flertallets skab – men det betyder ikke at majoriteten har ret. Vi vil udefra informere om, at der er andre måder at se tingene på, tilbyde et alternativt syn på livet og verden, som kan hjælpe nogle – især børn og unge – ud af et skab, de mistrives i."	"Spørgsmål:\nMener taleren at minoriteter bør tie med deres verdenssyn?"	2	2	5893	1	22888	1327	6	0	0
P01	9	False	practice	"Lad os brænde skabet med normerne, så vi frigøres fra dem og får retten til at være dem, vi faktisk er!"	"NO QUESTION"	NA	.	-1	-1	8389	1327	7	0	0
P01	10	False	experiment	"NY TALE BEGYNDER NU"	"NO QUESTION"	NA	.	-1	-1	1595	7905	-1	5	5
P01	11	False	experiment	"I slutningen af juli 1852 spadserede en ung kvinde på stierne her ved Rønnebæksholm. Hun øvede sig på at holde tale. Det var snart to år siden, at den danske hær slog slesvig-holstenerne i danmarkshistoriens største slag ved Isted. Nu skulle de faldne mindes, og sejren fejres med en folkefest på kampdagen den 25. juli. Festkomiteen havde sikret sig flere af tidens berømtheder som hovedtalere, blandt andre et par af Grundlovens fædre: Digterpræsten Niels Frederik Severin Grundtvig og Carl Ploug, digter og redaktør af avisen Fædrelandet samt Peter Rørdam, en populær bondepræst i Mern."	"NO QUESTION"	NA	.	-1	-1	47256	7905	0	5	5
P01	12	False	experiment	"Da festdagen nærmede sig, rygtedes det, at Mathilde Fibiger også ville tale ved mødet. Det var en sensation! Aldrig før havde en kvinde talt ved et offentligt møde. Og så netop denne kvinde – bare 21 år, berømt og berygtet for at have skrevet romanen Clara Raphaels breve. Mathilde Fibiger var den første i Danmark, som i romanform agiterede for 'damernes emancipation', som hun kaldte det. Hun skrev i en tid, der var gennemsyret af det akademiske borgerskabs og bondestandens oprør mod enevælden, den glødende nationalisme i treårskrigen (1848-51) og Grundlovens indførelse af borgerlige frihedsrettigheder."	"Spørgsmål:\nVar Mathilde Fibiger forfatter som 21-årig?"	1	1	4986	1	49577	7905	1	5	5
P01	13	False	experiment	"Den unge forfatterinde berusede sig i liberalismens idé om det enkelte menneskets ret til at søge sin lykke gennem at udvikle sin personlighed og intellekt. Tankens frihed måtte også gælde kvinder, mente hun. Den idé kom til at koste hende dyrt."	"NO QUESTION"	NA	.	-1	-1	16580	7905	2	5	5
P01	14	False	experiment	"Mathilde Fibigers roman er bygget op som hovedpersonens 12 breve til en veninde. Romanens hovedperson, Clara, ligner sin forfatter til forveksling. Hun er privatlærerinde i provinsen og her bringer hun utålmodigt politik og litteratur på banen ved middagsbordet og ved sammenkomster i omgangskredsen. Men Clara finder ingen genklang – kun løftede øjenbryn og hovedrysten over sine interesser og snaksalighed."	"NO QUESTION"	NA	.	-1	-1	38716	7905	3	5	5
P01	15	False	experiment	"I et let og livligt sprog lader Mathilde Fibiger Clara udfolde sine skarpe iagttagelser af, hvordan moral og konventioner holder kvinder indespærret i et åndeligt fattigdomsfængel, og fra brev nr. 3 runger et ulykkeligt skrig gennem historien: 'For første gang i mit liv føler jeg sorg over at jeg ingen mand er. Hvor fattigt og indholdsløst er ikke vort Liv imod deres? Er det med rette at de halve Mennesker er udelukkede fra al åndelig beskæftigelse? Eller har virkelig Vorherre skabt os af ringere Stof end mændene?'"	"NO QUESTION"	NA	.	-1	-1	46900	7905	4	5	5
P01	16	False	experiment	"Mathilde Fibiger krævede hverken stemmeret, ret til uddannelse eller arbejde. For hende var kernen i 'damernes emancipation' kvindens ret til at udvikle sin ånd og sit intellekt på lige fod med mænd. Eller snarere er det kvindens pligt – hun skriver i Clara Raphael, at 'Gud i hvert menneske har villet udtrykke en guddommelig idé og en særskilt i hver.'"	"NO QUESTION"	NA	.	-1	-1	29659	7905	5	5	5
P01	17	False	experiment	"Nutildags lyder det ikke af meget, men det var uhyre radikalt tænkt i en tidsalder, hvor idealkvinden var hustru, mor og sin mand underdanig; hvor kvindens livsopgave var at pleje sin mand som en potteplante, så han kunne udfolde sine potentialer bedst muligt, og dertil at opdrage sine drenge- og pigebørn til at betragte dette forhold mellem kønnene som naturligt. Derfor var bogens slutning så provokerende: Mathilde Fibiger lader Clara forelsker sig i en ung, smuk og klog baron. "	"NO QUESTION"	NA	.	-1	-1	35455	7905	6	5	5
P01	18	False	experiment	"De hede følelser er ved at føre hende bort fra sit religiøse livsprojekt, nemlig at udvikle det frø af ånd og intellekt, Gud har sået i hende – det ved Clara jo er umuligt for gifte kvinder – og for at få det hele til at gå op, lader Mathilde Fibiger de to elskende forenes i et broder-søsterligt ægteskab."	"NO QUESTION"	NA	.	-1	-1	24330	7905	7	5	5
P01	19	False	experiment	"Romanen vakte almindeligt ramaskrig og en længere litterær fejde. Flertallet af anmeldere var rent ud forargede både over emancipationskravet og cølibatægteskabet – begge dele var i modstrid med både Guds vilje og naturens orden."	"NO QUESTION"	NA	.	-1	-1	27909	7905	8	5	5
P01	20	False	experiment	"Mathildes familie blev opbragt over, at hun havde udgivet en roman uden deres vidende, så hun blev hentet hjem fra sit lærerindejob på Lolland, og anbragt hos en farbror. Her mødte hun Grundtvig, som havde anmeldt romanen rosende, og Grundtvigs hustru, Marie Toft, som ejede Rønnebæksholm – en arv fra hendes første mand. Marie Toft var en klog og viljestærk kvinde – og havde som andre enker personlig myndighed og råderet over sin formue."	"NO QUESTION"	NA	.	-1	-1	36431	7905	9	5	5
P01	21	False	experiment	"Hun drev godset eksemplarisk, og var landbrugspolitisk fremsynet, tilbød eksempelvis tidligt godsets fæstebønder deres gårde til arvefæste, og senere til selveje. Da den offentlige blæst om romanen havde lagt sig, tillod Mathilde Fibigers storebror Axel, der var hendes værge, hende at bo hos ægteparret på Rønnebæksholm i nogle måneder. "	"NO QUESTION"	NA	.	-1	-1	28181	7905	10	5	5
P01	22	False	experiment	"Og det var her, at Grundtvig opfordrede Mathilde til at kaste sig ud i vovestykket med den offentlige tale ved mindefesten i Næstved, og derfor travede hun nu af sted og forberedte sig på begivenheden ved at tale højt for sig selv, skovens fugle og markens dyr."	"NO QUESTION"	NA	.	-1	-1	20567	7905	11	5	5
P01	23	False	experiment	"Snart løb rygtet, og det nåede Mathildes familie. Hendes søskende tog affære som om, der var en naturkatastrofe under opsejling; de anså rent ud Mathilde for at være utilregnelig. En bror skrev til festkomiteens formand, og nedlagde på familiens vegne forbud mod talen, Axel og storesøster Ilja skrev til henholdsvis Grundtvig og Marie og bad dem hindre Mathilde Fibiger at forlade Rønnebæksholm. Men det ønske kom de ikke langt med. I sit svar understregede Marie Toft, 'at hverken Grundtvig eller jeg anser os for berettigede til at lukke Deres søster inde.'"	"NO QUESTION"	NA	.	-1	-1	35412	7905	12	5	5
P01	24	False	experiment	"På trods af støtten fra sine indflydelsesrige værtsfolk fik Mathilde Fibiger aldrig lov til at holde sin tale for andre end markens dyr og fugle. I samme øjeblik hun besteg festens talerstol, gik et stort mandfolk, godsejeren fra Flensborggården, hurtigt bag om ryggen på hende, og med et rask tag om hendes smalle liv løftede han hende ned på jorden. Dér stod hun så til spot for festens deltagere. Om nogen – for eksempel Grundtvig – gjorde indsigelser mod denne håndfaste behandling af en ung kvinde med høje frihedsidealer, melder historien intet om."	"Spørgsmål:\nHoldt Mathilde Fibiger sin tale fra talestolen?"	2	2	3612	1	32070	7905	13	5	5
P01	25	False	experiment	"Mathilde Fibiger er en af danmarkshistoriens heltinder. I en tid, hvor både gifte og ugifte kvinder var personligt og økonomisk umyndige, insisterede på at klare sig selv økonomisk, og selv bestemme, hvor hun boede, og hvilket arbejde hun tog. Hendes storebror og værge insisterede på, at det bestemte han. Til sidst så Mathilde ingen anden udvej end at true ham med de magtesløses våben: 'Fra den tid af, da du kan have dette brev, begynder jeg at sulte mig; hvis jeg ikke skal sulte ihjel, må jeg snarest muligt have dit klart og tydeligt affattede skriftlige samtykke til min plan. Du kan ikke gøre regning på at få Grundtvigs til at hindre det. De ville ikke anvende, og de tåler heller ikke, at nogen vil øve vold imod mig, så længe jeg er hos dem.' "	"NO QUESTION"	NA	.	-1	-1	64497	7905	14	5	5
P01	26	False	experiment	"'Nu skal vi se, om ikke den stærkeste bliver mig, skønt jeg er svagest; thi jeg kæmper for min frihed, der er mig kærere end livet!'"	"NO QUESTION"	NA	.	-1	-1	21207	7905	15	5	5
P01	27	False	experiment	"Så fik Mathilde Fibiger sin vilje. Ung, umyndig, men egensindig, modig og viljefast klarede hun sig selv, i de første år på sultegrænsen som skjortesyerske. Senere hjalp indflydelsesrige mænd hende til en uddannelse som Danmarks første, kvindelige telegrafist og ansættelse som første, kvindelige statstjenestemand. Og bemærk, hvor mange mænd, der hjalp hende. Kampen for ligestilling mellem kønnene har nemlig altid stået mellem demokratiske kvinder og mænd mod udemokratiske kvinder og mænd."	"NO QUESTION"	NA	.	-1	-1	29696	7905	16	5	5
P01	28	False	experiment	"Balladen om Mathilde Fibigers festtale og hendes vanskeligheder med at få lov til at leve et selvstændigt liv, viser i hvor lille grad Grundlovens frihedsrettigheder til at tale og tænke og tro og leve som man vil omfattede kvinder."	"NO QUESTION"	NA	.	-1	-1	15522	7905	17	5	5
P01	29	False	experiment	"Men det gik trinvist fremad, og i 1925 var der stort set opnået formel ligestilling i politik, i retten til uddannelse og i ægteskabet, hvor gifte kvinder i 1922 langt om længe fik forældreret til de børn, de fødte i ægteskabet, på lige fod med faren."	"NO QUESTION"	NA	.	-1	-1	19401	7905	18	5	5
P01	30	False	experiment	"Men oldnordiske tankemønstre blev ved at præge mentaliteten, og det mærkede jeg selv som barn og ung. I slutningen af juli 1969, altså for snart 50 år siden, rejste amerikanerne ud i rummet for at plante Stars and Stripes på månen. Neil Armstrong satte foden på det ukendte land med ordene: 'et lille skridt for mig, men et gigantisk spring for menneskeheden'. Jeg var 12, så det på sort-hvidt fjernsyn som et eventyr helt i forlængelse af mine yndlingsbøger: Ivanhoe, De Tre Musketerer og En Verdensomsejling Under Havet. "	"NO QUESTION"	NA	.	-1	-1	47171	7905	19	5	5
P01	31	False	experiment	"Så snart jeg kom i skole, overtalte jeg sammen med nogle kammerater vores geografilærer til at tale om månerejser. Han var lige så fascineret som os og fortalte malende om vores solsystem og rumfartsprogrammet. Men en vigtig ting kom han slet ikke ind på, så jeg stak fingeren i vejret og spurgte undrende: 'Hvorfor er der ingen kvindelige astronauter?'"	"NO QUESTION"	NA	.	-1	-1	25697	7905	20	5	5
P01	32	False	experiment	"Så lagde han cerutten i tavlens kridtrende – jo, dengang måtte lærerne ryge i klasseværelset! – lænede sig ud over katederet, rømmede sig, og sagde med alvor i stemmen: 'Det er, fordi kvinder har menstruation'. Jeg kan stadig mærke skammen stiger op i kroppen. Menstruation var ikke noget, man nævnte når der var drenge til stede. Med en enkelt sætning satte han, min beundrede lærer, mig uden for den store spændende verden sammen med mine veninder, vores mødre, tanter og lærerinder. Pludselig gik det op for mig, at det var drengekammeraterne i klassen, der skulle være opdagelsesrejsende, musketerer og astronauter – selvom mange af dem var ikke nær så gode til matematik og geografi som jeg og mine bedste veninder."	"NO QUESTION"	NA	.	-1	-1	46009	7905	21	5	5
P01	33	False	experiment	"Jeg hævnede mig ved at glemme min geografilærers navn, men har ofte sendt ham en knytnæve i tankerne - som da jeg løb et maraton i 1986 ... med menstruation. Det var blot fire år efter, at den Olympiske Komité endelig gav kvinder lov til at løbe maraton til de olympiske lege. Senere i livet har jeg brugt geografilæreren som argument overfor folk, der hævder, at verden ikke bliver bedre, fordi der kommer en kvindelig statsminister, professor, biskop eller kvinder på andre magtfulde poster i samfundet. 'De fører jo samme politik som mænd,' lyder argumentet. Ja vist. Men derfor er verden nu alligevel blevet bedre for 12-års piger, som i dag har udkig til voksne kvinder, der har rokket alvorligt ved antagelserne om, hvilke grænser biologien sætter for kvinders livsudfoldelse."	"NO QUESTION"	NA	.	-1	-1	50475	7905	22	5	5
P01	34	False	experiment	"Min mor – hun hed Lilly – tilhørte sidste generation, som blev opdraget med, at kvindens mål og pligt i livet er at holde hjemmet skinnende, ungerne vandkæmmede og manden så tilfreds, at han villigt går på arbejde og henter en løn hjem, der kan forsørge familien. I 1960 var der i Danmark 860.000 hjemmegående husmødre, der blev forsørget af deres mand. 30 år senere i 1990 var arbejdsstyrken steget med 800.000 personer – de 700.000 var kvinder. Og så skiftede forestillingen om den perfekte kvinde og det ideelle kvindeliv. Ægteskabet holdt op med at være 'den bedste sociale elevator for kvinden', som sociologiprofessor Svalastoga skrev i 1959. Det var en revolution."	"NO QUESTION"	NA	.	-1	-1	51822	7905	23	5	5
P01	35	False	experiment	"I dag er kvinders sociale anseelse hovedsagelig afhængig af deres status på arbejdsmarkedet, uanset om de er gift eller ej. Ingen forældre råder nu til dags deres pigebørn til at finde sig en god forsørger. En god uddannelse, så man kan forsørge sig selv – og børnene, hvis man engang bliver skilt – er et meget bedre råd. Samtidig har forældreskabet ændret sig; bortset fra bilernes omfang er den største ændring i gadebilledet de mange mænd med børn i barnevogne, i bæreseler, på cykler og ved hånden. Det så man kun meget sjældent, da jeg var barn."	"NO QUESTION"	NA	.	-1	-1	36013	7905	24	5	5
P01	36	False	experiment	"Ændringerne i forholdet mellem mænd og kvinder er gået hurtigt, ofte hurtigere end følelserne har kunnet følge med til, og med mellemrum bølger længslen efter gamle dages mere skarptskårne kønsroller. Nostalgien afspejler kvindebevægelsens evige dilemma: Ligesom andre store revolutionerende bevægelser, har kvindebevægelsens selvforståelse været, at feminismen bevæger samfundet fra undertrykkelse mod frigørelse, fra ufornuft mod fornuft, fra mørke mod lys - kort sagt, at de ændrede kønsroller, og frem for alt kvindernes indtog på arbejdsmarkedet, er et ubetinget historisk fremskridt. "	"Spørgsmål:\nMener kvindebevægelsen at kvindernes indtog på arbejdsmarkedet er et ubetinget historisk fremskridt?"	1	1	5583	1	46382	7905	25	5	5
P01	37	False	experiment	"Og den selvforståelse giver problemer: For hvordan kan det moderne familieliv med fuldtidsarbejde og børn, karriere og hus- og havearbejde kaldes et fremskridt, når det indimellem gør så ondt, at mange får lyst til at træde et par skridt tilbage i tidsmaskinen?"	"NO QUESTION"	NA	.	-1	-1	13334	7905	26	5	5
P01	38	False	experiment	"Hvis man kaster et blik i statistikkerne, er der en påfaldende samtidighed i stigningen af antallet af mennesker, der er ramt af alvorlige stress-sygdomme, antallet af skilsmisser og utilpassede børn – og så det forhold, at danskere gennemsnitligt bruger flere timer dagligt på løn- og husarbejde end for 20, 30, 50 år siden. Tid, der tidligere blev brugt på socialt samvær med familie, venner og naboer. Sådanne statistikker råber på en kulturkamp, som sætter menneskers hverdagsliv i centrum. For det er da paradoksalt, at økonomerne pukker på, at vi danskere skal arbejde mere for at få råd til velfærd, mens undersøgelse på undersøgelse viser, at flertallet af danskerne synes, at mere fri tid er det største velfærdsgode. Hører I det, derinde i regeringsforhandlingerne på Christiansborg."	"Spørgsmål:\nHenviser taleren til statistik, der viser at danskerne gennemsnitligt bruger mere tid på løn- og husarbejde end for 30 år siden?"	1	1	19068	1	57753	7905	27	5	5
P01	39	False	experiment	"Den nostalgiske længsel efter gammeldags familiemønstre afspejler også, at moderne mandlighed og kvindelighed ofte opleves som i strid 'naturens orden'. Den største erkendelse, jeg har fået gennem arbejdet med at skrive danmarkshistorie ud fra kvinders perspektiv, er, at naturen, dvs. kvinders og mænds biologi, altid er blevet brugt konservativt som argument mod kvinders frigørelse og ligestilling mellem kønnene."	"Spørgsmål:\nHar taleren skrevet om danmarkshistorie?"	1	1	2819	1	32478	7905	28	5	5
P01	40	False	experiment	"I dag er kønnet i langt mindre grad en spændetrøje end for 100 eller 50 år siden, men der florerer stadig mange myter om ægte kvindelighed og ægte mandlighed, som gør os til kopier af idealforestillinger, i stedet for originale personligheder. Og de myter skal vi i fællesskab blive ved med at punktere, så vi hver især får plads til at være og udfolde os, som vi er. Mathilde Fibiger indledte kampen på kvindernes vegne – og livet kan kun blive mere mangfoldigt og rigt ved at fortsætte på alles vegne. "	"Spørgsmål:\nMener taleren at køn stadig er en spændetrøje for nogen?"	1	1	3051	1	34308	7905	29	5	5
P01	41	False	experiment	"Vi kan kun undgå moderne heksejagte, racistiske og sexistiske hetzbølger, shitstorme og mobbeofre, ved at efterleve den frihedstanke i Grundloven, som berusede Mathilde Fibiger: Du kan tænke og tale og tro og leve som du vil – så længe du ikke sætter din nabos frihed på spil."	"NO QUESTION"	NA	.	-1	-1	24335	7905	30	5	5
P01	42	False	experiment	"Rigtig god skt. Hans aften til jer alle."	"NO QUESTION"	NA	.	-1	-1	4159	7905	31	5	5
P01	43	False	experiment	"NY TALE BEGYNDER NU"	"NO QUESTION"	NA	.	-1	-1	2132	18561	-1	5	5
P01	44	False	experiment	"Kære alle sammen\nJeg tror, alle har en historie om en lærer, der på en eller anden måde har gjort en forskel for os. En lærer, der så vores talent, støttede os i en svær tid eller gjorde os nysgerrige efter at lære mere."	"NO QUESTION"	NA	.	-1	-1	12732	18561	0	5	5
P01	45	False	experiment	"Flemming, min klasselærer, var sådan en lærer. Vi havde ham i dansk igennem 7 år. Han var et trygt og sikkert anker for os. Han var god til at formidle, og så var han til stede i klasseværelset og gjorde det hyggeligt og sjovt at lære."	"NO QUESTION"	NA	.	-1	-1	12142	18561	1	5	5
P01	46	False	experiment	"Alle børn fortjener en superlærer som Flemming. Den slags lærere er vigtige for sammenhængskraften i vores samfund. Det er dem, der har vores børn i hænderne i 10 år i træk. Det er dem, der skal give vores børn et solidt fundament af faglighed. Og det er dem, der skal udvikle vores børn til at blive kloge, selvstændige og kritiske unge.\nLige om lidt er det jeres tur som lærerstuderende. Og jeg er glad for, at I har taget initiativ til konferencen her, så vi kan få talt om, hvordan vi i fælleskab former fremtidens læreruddannelse."	"NO QUESTION"	NA	.	-1	-1	30146	18561	2	5	5
P01	47	False	experiment	"Som I måske ved, har jeg været rundt i landet for at få læreruddannelsen mere ind under huden. For min holdning er, at jeg gerne vil se – med egne øjne – hvordan det står til, inden jeg konkluderer, hvad vi eventuelt skal forandre. Mit indtryk er, at rigtig mange af jer gerne vil ud og være superlærere. I brænder for at undervise alle slags børn. I er ikke bare optaget af fagfagligheden, men også af at inspirere vores børn gennem god formidling."	"NO QUESTION"	NA	.	-1	-1	25174	18561	3	5	5
P01	48	False	experiment	"Og når jeg spørger, hvad der kan være anderledes, så hører jeg egentlig mere end noget andet; at I gerne vil have mere. Mere undervisning, mere praktik, mere læring. Det er en stor gave, at vi har en studentergruppe, der er så engageret. Så er det vores opgave som politikere at sørge for at imødekomme jer på jeres ønsker så godt, vi kan."	"Spørgsmål:\nØnsker de lærerstuderende - ifølge taleren - mere undervisning?"	1	1	3747	1	23157	18561	4	5	5
P01	49	False	experiment	"Der er særligt én ting, som jeg har lagt mærke til, når jeg har været rundt på de forskellige uddannelser. Ligegyldigt hvor jeg kommer – om det er i Hjørring, Vordingborg eller København – så oplever jeg, at der er et ønske om at få læreruddannelsen tættere knyttet til praksis. Mange lærerstuderene er bekymrede for at komme ud i deres første job. Om de er klædt godt nok på. Det kan jeg godt forstå. Det er en kompleks opgave at være lærer i dag."	"NO QUESTION"	NA	.	-1	-1	21245	18561	5	5	5
P01	50	False	experiment	"Jeg var selv i praktik med Knud, der var i praktik som kemilærer. Så bliver det næsten ikke mere 'meta' end det. Det var sidste mandag, at jeg var i praktik på Søndervangsskolen. Her lærte jeg om svovlsyre i 7A. Men jeg blev også klogere på praktikken."	"NO QUESTION"	NA	.	-1	-1	18797	18561	6	5	5
P01	51	False	experiment	"Det var tydeligt, at Knud – som mange andre studerende – så netop praktikken som højdepunktet på uddannelsen. For ham blev uddannelsen først rigtig spændende, da han mødte virkeligheden på Søndervangsskolen og fik sat liv på alle teorierne. Og fik prøvet sig selv af."	"NO QUESTION"	NA	.	-1	-1	13618	18561	7	5	5
P01	52	False	experiment	"Alle steder hører jeg, at de studerende ønsker mere praktik, mere sammenhængende praktik og en bedre overgang fra auditorie til klasseværelse. Den sammenhæng mellem virkeligheden og det, de studerende lærer på uddannelsen, vil jeg gerne være med til at styrke."	"NO QUESTION"	NA	.	-1	-1	14095	18561	8	5	5
P01	53	False	experiment	"Derfor bliver jeg glad, når jeg hører, at kommunerne kalder sig 'meduddannere'. For det er afgørende, at også kommunerne spiller med. Jeg kan ikke bare lovgive om, at jeres uddannelse skal være bedre knyttet til praksis og så læne mig tilbage. Vi har brug for at tænke det hele sammen og gøre det i fællesskab."	"NO QUESTION"	NA	.	-1	-1	22476	18561	9	5	5
P01	54	False	experiment	"Jeg vil gerne insistere på at balancere den her diskussion. For jeg synes, der er en tendens til, at vi politikere gerne vil signalere viljekraft og slagkraft og sige: Yes, her er noget, der ikke fungerer. Vi laver en ny reform!"	"NO QUESTION"	NA	.	-1	-1	13562	18561	10	5	5
P01	55	False	experiment	"Det er måske derfor, jeres uddannelse har været igennem reform efter reform efter reform i de sidste 20 år. Jeg tror, vi kan gøre det klogere. Jeg tror, vi kan vælge at bruge de rammer, der blev lagt for læreruddannelsen i 2013 bedre. Og så se på – hen ad vejen – hvad der eventuelt kræver en lovændring, hvad der kræver økonomi, og hvad der kræver bedre kobling til det kommunale."	"NO QUESTION"	NA	.	-1	-1	19688	18561	11	5	5
P01	56	False	experiment	"Det andet, jeg gerne vil være med til at styrke og tager meget alvorligt, det er de studerendes trivsel. Vi har alt for mange studerende, der er stressede. Ikke bare op til eksamen. Men også på en helt almindelig hverdag. Der gør mig bekymret. For det kan gå hen og blokere for, at I kan blive superlærere."	"NO QUESTION"	NA	.	-1	-1	14122	18561	12	5	5
P01	57	False	experiment	"Jeg er særligt bekymret for jer på lærerstudiet, fordi I oplever den her stress og mistrivsel dobbelt. På den ene side er I selv en del af en stresset ungdomsgeneration, og på den anden side skal I være klædt på til at rumme, at vores børnegruppe i folkeskolen også er det."	"NO QUESTION"	NA	.	-1	-1	13510	18561	13	5	5
P01	58	False	experiment	"Når jeg er ude og besøge gymnasier og spørger eleverne dér, hvad de laver i deres fritid, så siger de: 'Fritid? Vi laver afleveringer.' De føler ikke, at der er tid til at indgå i fælleskaber. Det at lave sine afleveringer, gøre sig umage og være flittig, fylder det hele. Men hvad så med det fælleskab, der var, da man var spejderleder? Eller fodboldtræner? Eller aktiv i en ungdomsforening? Hvad så med den værdi, det giver at være noget for nogen? Hvad sker der med den, hvis det hele går op i at præstere og få gode karakterer?"	"NO QUESTION"	NA	.	-1	-1	29046	18561	14	5	5
P01	59	False	experiment	"Fælleskaber er vigtige. For vi skal kunne hente vores værdier flere steder fra. Og hvis vi har gode fælleskaber, har vi også nemmere ved at sige: Det blev så ikke til et 12-tal den her gang. Men de børn, jeg er svømmelærer for, dem får jeg smilet frem i."	"NO QUESTION"	NA	.	-1	-1	19075	18561	15	5	5
P01	60	False	experiment	"En ting er sikkert: Vi har brug for, at I trives som lærerstuderende. Så I har overskud til at lære og være nysgerrige og blive klogere. For det er også det lys, de skal ud og tænde i elevernes øjne. Nysgerrighedens lys."	"NO QUESTION"	NA	.	-1	-1	15318	18561	16	5	5
P01	61	False	experiment	"Jeg synes, I lærerstuderende er heldige. I kan se frem til – om ikke det fedeste – så det næstfedeste job i verden: jobbet som lærer. Derfor vil jeg gerne sige tak til de lærerstuderende for at tage initiativ til konferencen i dag. I skal vide: Jeres uddannelse er vigtig for mig. Jeres uddannelse er vigtig for regeringen. Jeg er sikker på, at fremtidens fantastiske læreruddannelse, er noget, vi kan skabe i fælleskab."	"NO QUESTION"	NA	.	-1	-1	18172	18561	17	5	5
P01	62	False	experiment	"Tak for ordet."	"NO QUESTION"	NA	.	-1	-1	1354	18561	18	5	5
P01	63	False	experiment	"NY TALE BEGYNDER NU"	"NO QUESTION"	NA	.	-1	-1	1667	18473	-1	3	3
P01	64	False	experiment	"Goddag alle sammen. Mit navn er Frederik Sandby. Jeg er studerende ved kandidatuddannelsen i Klimaforandringer ved Københavns Universitet og er medstifter af Den Grønne Studenterbevægelse. I har måske hørt om os, ja, det er blandt andre os, som stædigt og utålmodigt går sammen i regn og slud til klimastrejkerne og mange af os, som arrangerer Folkets Klimamarch for at kræve øjeblikkelig klimahandling og en verden uden total klimakollaps."	"NO QUESTION"	NA	.	-1	-1	28159	18473	0	3	3
P01	65	False	experiment	"I dag er jeg her jo for at tale om de 17 verdensmål, og det er vel meget passende, for som Katherine Richardson siger, så er den mest effektive måde at løse klimakrisen på samtidig at opfylde de 17. verdensmål."	"Spørgsmål:\nEr der 19 FN verdensmål?"	2	2	3225	1	11980	18473	1	3	3
P01	66	False	experiment	"De 17 verdensmål er en vision om en bæredygtig verden, men på mange måder er de 17 verdensmål for mange unge blevet synonym med politikere, som siger én ting, og gør en anden. Så når vi i dag er samlet for at tale om, hvordan vi kan engagere de mange frem for de få, så har vi først en grundlæggende opgave foran os. Vi har til opgave at sørge for, at vi få selv tror på de 17 verdensmål. For gør vi egentlig det?"	"NO QUESTION"	NA	.	-1	-1	31916	18473	2	3	3
P01	67	False	experiment	"De 17 verdensmål handler om en verden i mere harmoni end i dag, men på en række af verdensmålene, nemlig de, som omhandler vores natur og klima, fejler vi igen og igen."	"Spørgsmål:\nMener taleren at vi klarer os godt i forhold til alle de 17 verdensmål?"	2	2	3929	1	8975	18473	3	3	3
P01	68	False	experiment	"Så er det da klart, at vi unge bliver desillusionerede, fordi samtidig med at vi kan se, at det går den forkerte vej, ser vi samtidig at danske og udenlandske forskere siger, at Danmark er et af de lande i verden, som bidrager allermest til menneskeskabte klimaforandringer pga. vores massive klimaaftryk. Derfor bliver de 17 verdensmål udvandede, og derfor går tusindvis af unge i Danmark og millioner af unge verden over fredag efter fredag sammen i klimastrejkerne."	"Spørgsmål:\nForegår klimastrejkerne om tirsdagene?"	2	2	2553	1	22472	18473	4	3	3
P01	69	False	experiment	"Hvis vi ønsker, at verdensmålene skal forankres i befolkningen, så skal der først og fremmest ærlighed og ansvarlighed tilbage i Folketinget, ærlighed i at fortælle situationens alvor og ansvarlighed i at behandle det, for hvad det er: nemlig en eksistentiel krise."	"NO QUESTION"	NA	.	-1	-1	15836	18473	5	3	3
P01	70	False	experiment	"Men bliver dette gjort? Mener I, at regeringens finansudspil afspejler en verden, der bevæger sig imod et økologisk kollaps og samfundskollaps? Kan man gå ind for de 17 verdensmål og fortsat give tilladelser til at udvinde mere og mere olie i Nordsøen? Det 13. verdensmål lyder: Vi skal handle hurtigt for at bekæmpe klimaforandringer og deres konsekvenser."	"NO QUESTION"	NA	.	-1	-1	19039	18473	6	3	3
P01	71	False	experiment	"Men alligevel får regeringen det til at lyde som om, at en 70% reduktion i danske, nationale drivhusgasser i 2030 målt i forhold til 1990 er en næsten uoverkommelig opgave, selvom det kun er et skridt på vejen til at opnå klimaretfærdighed og opfylde de 17 verdensmål."	"Spørgsmål:\nMener taleren at en 70% reduktion af danske nationale drivhusgasser i 2030 målt i forhold til 1990 er tilstrækkeligt for at opnå klimaretfærdighed?"	2	2	6134	1	14335	18473	7	3	3
P01	72	False	experiment	"For hvis vi omsætter reduktionsmålet til den procentmæssige reduktion i det totale danske klimaaftryk, altså medregnet forbrugsopgjorte udledninger, så er det kun en 25% reduktion i 2030 målt i forhold til i dag. Synes I, det er ambitiøst?"	"NO QUESTION"	NA	.	-1	-1	16422	18473	8	3	3
P01	73	False	experiment	"Så sent som i tirsdags stod statsministeren og forsikrede os om, at regeringen vil handle for at opfylde det 13. verdensmål og bekæmpe klimakrisen. Men der er på nuværende tidspunkt absolut ingenting, som peger på, at vi tidsnok ser fundamentale samfundsforandringer. Til det er der brug for en helt ny form for politisk mod og vilje. Vi unge ønsker, at den viden, som udvikles på universiteterne også anvendes i samfundet. Vi ønsker et samfund, som er mere baseret på fakta, mod og visioner."	"NO QUESTION"	NA	.	-1	-1	28639	18473	9	3	3
P01	74	False	experiment	"Selvom der allerede eksisterer bunkevis af forskning, som politiske ledere og beslutningstagere burde tage udgangspunkt i, så ønsker vi unge at se mere forskning, der søger at realisere globale mål for social og miljømæssig bæredygtighed. Og udover at bidrage til den internationale forskning skal disse resultater hurtigt omsættes til formidling, samarbejde og handling i dansk politik og bred offentlighed."	"NO QUESTION"	NA	.	-1	-1	24195	18473	10	3	3
P01	75	False	experiment	"For der er behov for, at universiteterne målrettet arbejder med de 17 verdensmål som rettesnor, og at universiteterne får en stærkere rolle som den primære institution til at istandgøre fremtidens generationer til det 21. århundredes udfordringer."	"NO QUESTION"	NA	.	-1	-1	12547	18473	11	3	3
P01	76	False	experiment	"Vi har brug for at få alle fagligheder i spil, da det i høj grad er gennem tværfaglige løsninger, at vi skal håndtere de 17 verdensmål. Vi skal have igangsat processer for, hvordan de enkelte fagområder kan arbejde med og bidrage til at forhindre klimaforandringerne og løse den økologiske krise. Centralt er det, at der også skal undervises i økonomiske teorier, hvor klodens planetære grænser indtænkes i det økonomiske system."	"NO QUESTION"	NA	.	-1	-1	28585	18473	12	3	3
P01	77	False	experiment	"For et af vores største problemer er, at det økonomiske system, som vores fantastiske velfærdsstat, som visionære danskere har skabt i det 20. århundrede, er baseret på et stort forbrug af fossile brændsler og en generel overudnyttelse af jordens naturressourcer."	"NO QUESTION"	NA	.	-1	-1	15076	18473	13	3	3
P01	78	False	experiment	"I det 21. århundrede er det modige politikeres opgave at redefinere velfærdsstaten på en måde, hvor velfærd og et lavt klimaaftryk går hånd i hånd. Det lykkes kun, hvis vi tager ansvar for alle de danske udledninger - også dem, vi har outsourcet til udlandet."	"NO QUESTION"	NA	.	-1	-1	17223	18473	14	3	3
P01	79	False	experiment	"Hvis vi vil engagere de mange frem for de få i 17 verdensmål, så skal vi sørge for at vise, at de 17. verdensmål bliver taget seriøst. For verdensmålene er et smukt rammeværk for en bæredygtig verden for alle mennesker på planeten og en nødvendighed for fremtidens velfærd, stabilitet og lykke."	"NO QUESTION"	NA	.	-1	-1	28336	18473	15	3	3
P01	80	False	experiment	"Engagement - Samarbejde - Forandring"	"NO QUESTION"	NA	.	-1	-1	2049	18473	16	3	3
P01	81	False	experiment	"NY TALE BEGYNDER NU"	"NO QUESTION"	NA	.	-1	-1	2010	11171	-1	3	3
P01	82	False	experiment	"Kære Alle\nMit navn er Andrea Rygg Karberg, og jeg startede 1. juni som ny direktør for Nivaagaards Malerisamling. Mine første 23 dage har været forrygende travle, skægge og glade. Jeg har set frem til at opleve også denne her smukke Nivaagaard-tradition, og jeg blev meget beæret, da jeg blev bedt om at holde årets båltale. En båltale er jo sådan en slags frit emne, så jeg har haft mange forskellige ideer – og jeg er endt med at ville tale om en række H’er: Sankt Hans – hedenskab – hekse – og Holger Drachmann."	"NO QUESTION"	NA	.	-1	-1	26362	11171	0	3	3
P01	83	False	experiment	"Det er faktisk i morgen, 24. juni, der altid har heddet sankthansdag – og aftenen inden er så sankthansaften – og denne Hans er det danske navn for Johannes Døberen, ham vi kan se i mange værker herinde i samlingen! Han var jo lidt af en dommedagsprædikant, der også banede vejen for profetens komme og døbte Jesus. Hans mor var i familie med Jomfru Maria, og når madonna af og til ses afbildet med to drengebørn, er den ene altid Jesusbarnet og den anden Johannes Døberen, der altså var netop et halvt år ældre end Jesus."	"NO QUESTION"	NA	.	-1	-1	29232	11171	1	3	3
P01	84	False	experiment	"Danskernes sankthansbål og sankthanstraditioner har for mig at se intet med Johannes Døberen at gøre. Det er gamle hedenske traditioner, der er overført til den kristne tid og har fået nye navne. Vi fejrer i dag, at vi sådan ca. har årets længste dag og årets korteste nat – ligesom vi har lagt Jesu fødselsdag ca. på den dag, hvor man altid har markeret årets korteste dag og længste nat. "	"NO QUESTION"	NA	.	-1	-1	28602	11171	2	3	3
P01	85	False	experiment	"Så selv om det ikke er til at holde ud at tænke på, handler dagen i dag om, at nu går vi mod mørkere tider!! Og det er jo fornuftigt at udskyde det længst muligt ved blandt andet at tænde et stort bål og nyde ildens lys som en hyldest til den livgivende sol, vi elsker og tit savner. I alle de såkaldt primitive religioner er solen den stærkeste guddom, og festen i dag er i sin grundvold herligt hedensk."	"NO QUESTION"	NA	.	-1	-1	29662	11171	3	3	3
P01	86	False	experiment	"Så er der det med heksene. Vi har i dag her på bålet en sjældent flot en af slagsen, som er lavet af de lokale spejder-juniorer, 'De Vilde Svaner', som jeg gerne vil sige en stor tak til. Jeg vil også gerne sige tak til en af vores mange fantastiske frivillige, John, som, når jeg er færdig, vil tænde bålet. "	"Spørgsmål:\nHar spejderne 'De Vilde Svaner' lavet heksen på bålet?"	1	1	6094	1	15702	11171	4	3	3
P01	87	False	experiment	"Jeg ved ikke, hvad Nivaagaards Malerisamling skulle gøre uden jeres mange talenter og store engagement, det er helt vidunderligt, at der er så mange, der gerne vil yde noget ekstra i en god sags tjeneste, som eksempelvis en kunstsamling i verdensklasse, der er givet i gave til os alle. Generøsitet er et nøgleord for Nivaagaards Malerisamling.
"	"NO QUESTION"	NA	.	-1	-1	25902	11171	5	3	3
P01	88	False	experiment	"Tilbage til H’erne og heksene. De kloge koner med kendskab til magi. Deres urgamle ritualer blev forbudt med kristendommen, de blev gjort til noget uhyggeligt i folkeeventyrene, hvor de vil spise Hans og Grethe, og det er først på det seneste med Harry Potter bøgerne, at de er blevet populære igen. Heksebrændingerne er et meget mørkt kapitel i historien."	"NO QUESTION"	NA	.	-1	-1	21517	11171	6	3	3
P01	89	False	experiment	"I Danmark intensiveredes heksejagten under Kong Christian IV, renæssancekongen, i den tid, vi også har mange billeder fra her i samlingen. Vi kender ham som en kunstnerisk sjæl og en stor bygherre – og så var han helt vild med kvinder. Han var en mægtig herre, men tit tog kvinderne magten over ham, de ødelagde hans koncentrationsevne – han blev kulret og tænkte sandsynligvis, at det aldrig kunne være hans egen skyld, men at kvindfolk simpelthen havde en særlig evne til at forhekse de stakkels mænd."	"NO QUESTION"	NA	.	-1	-1	28113	11171	7	3	3
P01	90	False	experiment	"Der findes mange nedskrevne retssager fra den tid, og det er frygteligt at tænke på, hvis man ikke selv i dag tror på hekse, hvad det er for faktorer, der har gjort visse kvinder til udstødte syndebukke og ofre for beskyldninger om at være hekse. Det har tit været de klogeste og smukkeste kvinder, som nogle var jaloux på, eller de svageste og fattigste, som var nemme at træde på. De benægtede alle til at starte med, men efter en passende mængde tortur indrømmede de deres heksekunster, som vi nok alle ville gøre."	"NO QUESTION"	NA	.	-1	-1	27142	11171	8	3	3
P01	91	False	experiment	"Jeg har læst om en ægtemand, der holdt en hel uge, før han indrømmede, at ja, hans kone var så en heks da. Og så blev de brændt, og med dem det onde selv, håbede man. Nogle århundreder senere kan tingene blive vendt på hovedet, og dermed hvem, der egentlig udførte den onde handling. Behovet for syndebukke er almenmenneskeligt og florerer til alle tider. "	"NO QUESTION"	NA	.	-1	-1	26005	11171	9	3	3
P01	92	False	experiment	"Selv om det er helt utopisk, er det mit ønske, at den heks, vi brænder i aften, ikke er et menneske, men et symbol på al uretfærdighed. Lad os brænde behovet for syndebukke og påtage os ansvaret for vore egne handlinger. Lad os favne heksene, dem, der render rundt derude – og heksene i os selv. Der er gode og onde tilbøjeligheder i os alle, og hvis man vil stræbe efter at udrydde det onde, er det ganske fornuftigt at prøve at starte med sig selv."	"NO QUESTION"	NA	.	-1	-1	24150	11171	10	3	3
P01	93	False	experiment	"Og så er jeg nået til den kære Holger Drachmann, som jo har skrevet den midsommervise, vi om lidt skal synge, som John vil hjælpe med at dele ud. Teksten er så smuk, og jeg håber sådan, at vi kan leve op til digterens ord om, at vi vil kæmpe imod ufred, lidt selvmodsigende, men netop fordi vi vil have fred her til lands. Og Drachmann slutter med at sige, at freden kan vindes, hvor hjerterne aldrig bliver tvivlende kolde."	"Spørgsmål:\nHar Herman Drachmann skrevet midsommervisen?"	2	1	2913	0	34401	11171	11	3	3
P01	94	False	experiment	"Det er rigtigt. Når ondskaben skal bekæmpes, skal vi starte i vore egne hjerter. Hvad end vi i aften mindes Johannes Døberen eller solguden, brænder vi på vores bål ikke en stakkels uskyldig heks. Vi drømmer om at brænde ufreden selv. Vi sender kærlige tanker til alle de studenter, der har kørt i vogn i dag, og til alle unge mennesker, der med digterens ord lige nu går glade til dans. Vi glæder os til den lange, smukke og vidunderlige sommer, der ligger foran os. Og lad nu vores sankthansbål varme os helt ind i vores hjerter, så de aldrig bliver tvivlende kolde."	"NO QUESTION"	NA	.	-1	-1	32400	11171	12	3	3
