Session_Name_	Trial_Index_	Trial_Recycled_	condition	text	question	expected_key	QUESTION_KEY_PRESSED	QUESTION_RT	QUESTION_ACCURACY	SENTENCE_RT	speechid	paragraphid	counterbalance	LAST_COUNTERBALANCE
P15	1	False	practice	"NY TALE BEGYNDER NU"	"NO QUESTION"	NA	.	-1	-1	6449	1327	-1	0	0
P15	2	False	practice	"Hej alle sammen!"	"NO QUESTION"	NA	.	-1	-1	3656	1327	0	0	0
P15	3	False	practice	"Som I allerede ved, vil vi om lidt tænde for et bål, der vil brænde et skab af – det skab, vi har følt os begrænset af, indelukket i, og som de fleste af os er brudt ud af for at kunne blive lykkeligere."	"NO QUESTION"	NA	.	-1	-1	13755	1327	1	0	0
P15	4	False	practice	"'Men skabe er da ganske praktiske til opbevaring af mangt og meget, ikke sandt?' Jo, opbevaring af værdier, det er rigtigt – men når vi først begynder at sætte spørgsmålstegn ved disse værdier, så føles skabet mere og mere trangt, for det kan ikke rumme vores ideer og følelser mere."	"NO QUESTION"	NA	.	-1	-1	12642	1327	2	0	0
P15	5	False	practice	"'Jamen hvad er der i det skab?' Der er en opfattelse af at kvinder og mænd skal tænke, føle, klæde sig og handle forskelligt – fordi nogle er kvinder og andre er mænd. Kønsroller kalder vi det. Men det rækker faktisk meget længere end bare til roller, vi spiller – rollerne invaderer vores tanker og vores følelser, så vi næsten ikke kan tænke uden for rollen, så længe skabet omslutter os, og i hvert fald først og fremmest føler vi må tage hensyn til dem, der er i skabet..."	"Spørgsmål:\nMener taleren at kønsroller både påvirker hvordan vi handler og tænker?"	1	1	5039	1	20284	1327	3	0	0
P15	6	False	practice	"Når vi endelig bryder ud af skabet og for alvor viser og siger det, der ikke passer i det normative skab, kan vi godt opleve negative reaktioner – men så sandelig også positive – for vi er jo slet ikke alene!"	"NO QUESTION"	NA	.	-1	-1	8734	1327	4	0	0
P15	7	False	practice	"Der er nemlig andre som ligner os mere eller mindre, vi er en broget og mangfoldig flok i alle aldre, hudfarver, kulturelle baggrunde, med og uden handicap, med og uden tro, af forskellig politisk overbevisning, og – vigtigst for os her: af flere forskellige kønsidentiteter og seksuelle orienteringer."	"NO QUESTION"	NA	.	-1	-1	13594	1327	5	0	0
P15	8	False	practice	"Fælles for os er, at vi er en regnbueminoritet i forhold til flertallets skab – men det betyder ikke at majoriteten har ret. Vi vil udefra informere om, at der er andre måder at se tingene på, tilbyde et alternativt syn på livet og verden, som kan hjælpe nogle – især børn og unge – ud af et skab, de mistrives i."	"Spørgsmål:\nMener taleren at minoriteter bør tie med deres verdenssyn?"	2	2	2985	1	13770	1327	6	0	0
P15	9	False	practice	"Lad os brænde skabet med normerne, så vi frigøres fra dem og får retten til at være dem, vi faktisk er!"	"NO QUESTION"	NA	.	-1	-1	3738	1327	7	0	0
P15	10	False	experiment	"NY TALE BEGYNDER NU"	"NO QUESTION"	NA	.	-1	-1	1996	1317	-1	10	10
P15	11	False	experiment	"Vi har to kriser: en økonomisk krise og en klima- og ressourcekrise. De skal løses sammen. Lige nu står vi på en brændende platform: Kina sidder på markedet for ressourcer som blandt andet sjældne mineraler og en lang række andre værdifulde og kritiske ressourcer, samtidig med at både ressourceknaphed og -forbrug stiger."	"NO QUESTION"	NA	.	-1	-1	14885	1317	0	10	10
P15	12	False	experiment	"EU's vision for 2020 er at 50 procent af husholdningsaffaldet genanvendes. Vores fælles vision for 2020 skal være endnu mere ambitiøs – og stile mod at deponering stort set ophører og genanvendelsen stiger markant. Regeringens 50 nye millioner til miljøteknologi på finansloven skal understøtte udviklingen. I skal bidrage med løsninger! Bedre ressourceforvaltning og affaldsforebyggelse er nogle af nøgleordene."	"NO QUESTION"	NA	.	-1	-1	22417	1317	1	10	10
P15	13	False	experiment	"Når affaldet genanvendes, skal det gerne blive til produkter af høj kvalitet, som forbrugerne vil købe. Vi skal med andre ord undgå downcycling og ikke forringe kvaliteten af materialerne. Målet er at recirkulere mange flere af de værdifulde ressourcer, der findes i affaldet."	"NO QUESTION"	NA	.	-1	-1	16293	1317	2	10	10
P15	14	False	experiment	"Som for eksempel når affald af Rockwool i Danmark kan blive indsamlet og genbrugt til ny Rockwool. På samme tid får man en billig råvare, der kan erstatte nye råvarer, og man er fri for at skulle deponere affaldet. Begge dele sparer kloden for udledning af en masse CO2."	"NO QUESTION"	NA	.	-1	-1	13101	1317	3	10	10
P15	15	False	experiment	"Det er ikke nok kun at overveje energiindholdet i affaldet – der findes mange andre værdifulde og udtømmelige ressourcer, som ikke bør gå til spilde. Eksempelvis metaller og sjældne jordarter som anvendes i mobiltelefoner og pc'er. Både europæiske og nationale initiativer er nødvendige for at øge ressourceeffektiviteten i Danmark og EU. Derfor bliver et af de vigtige punkter på dagsordenen for det danske formandskab også at arbejde med Ecodesign-direktivet. Det skal ikke bare begrænse produkternes energiforbrug, men også designe produkterne, så det er lettere at recirkulere ressourcerne."	"NO QUESTION"	NA	.	-1	-1	28840	1317	4	10	10
P15	16	False	experiment	"På EU-niveau ved vi, at: 3⁄4 af EU's påvirkning af miljøet stammer fra fødevarer og drikkevarer, privat transport og boliger. Langt det meste af produkternes miljøpåvirkning bestemmes i designfasen."	"NO QUESTION"	NA	.	-1	-1	17026	1317	5	10	10
P15	17	False	experiment	"Hvordan kommer så vi videre? Et væsentligt skridt er Kommissionens 'Køreplan til et ressourceeffektivt Europa'. Det overordnede mål: et lavere træk på klodens ressourcer via mere og bedre genanvendelse. Jeg har valgt et par eksempler – der er mange at vælge imellem: Det første er flere offentlige grønne indkøb. Her spiller blandt andre kommunerne en rigtig stor rolle. Vi skal også have affaldshierarkiet mere tydeligt i spil, så det indgår klart i vores regulering på tværs af sektoren – for eksempel ved regler om produkter eller krav til bygge- og anlægsarbejder."	"NO QUESTION"	NA	.	-1	-1	24671	1317	6	10	10
P15	18	False	experiment	"Det tredje eksempel, som også flugter med det nye regeringsgrundlag, er ønsket om at skatter og afgifter flyttes fra arbejde til miljø og ressourcer. Det skal understøtte grønne jobs og sikre, at der er betaling for både ressourceforbrug og miljøbelastning."	"NO QUESTION"	NA	.	-1	-1	14815	1317	7	10	10
P15	19	False	experiment	"Et nyt 7. miljøhandlingsprogram i EU skal konkretisere køreplanen. Under overskriften 'Greening the economy' skal et langsigtet 10-årigt program bidrage til Europas grønne omstilling af økonomien. Det skal bygge videre på ressourceeffektivitets-dagsordenen, indsatsen for biodiversitet, vand, klima samt miljø og sundhed, som var hovedindsatsområderne i det 6. miljøhandlingsprogram. Bæredygtig forvaltning af ressourcer og affald er fortsat et område, der prioriteres højt på europæisk plan."	"NO QUESTION"	NA	.	-1	-1	22172	1317	8	10	10
P15	20	False	experiment	"Også på den hjemlige bane, er der politisk fokus på ressourcer. Den danske affaldsstrategi 2013-18 bliver en ressourcestrategi. Ressourcestrategien skal være vores nationale plan for, hvad der skal gøres. Den vil blive fulgt af en plan for, hvordan vi forebygger affald i 2014-19, som skal laves for første gang."	"NO QUESTION"	NA	.	-1	-1	16512	1317	9	10	10
P15	21	False	experiment	"Begge planer skal være klare og prioriterede: Hvad er vigtigst at nå for Danmark? Hvad er realistiske, men samtidig ambitiøse målsætninger? Hvilke midler skal vi have på plads for at nå målene? Det er spørgsmål, som jeg er sikker på, at branchen har nogle bud på. Jeg håber, I vil være med til at finde løsninger på tværs, der kan gavne både miljø, økonomi og konkurrenceevne. Ikke bare fordi det er bedst, men fordi det er den eneste løsning."	"NO QUESTION"	NA	.	-1	-1	21801	1317	10	10	10
P15	22	False	experiment	"Det allerbedste vil selvfølgelig være, hvis vi kan undgå at producere affald. Men hvordan gør vi det? Her tager jeg udgangspunkt i, hvad den enkelte kan gøre. Som forbrugere kan vi købe kvalitetsvarer, bruge tingene mere og længere og reparere dem i stedet for at smide dem ud. Vi kan også købe brugt, sælge, bytte eller forære vores ting væk. På den måde får de et længere liv, og flere får glæde af dem."	"NO QUESTION"	NA	.	-1	-1	22087	1317	11	10	10
P15	23	False	experiment	"Med hensyn til madspild burde det være endnu nemmere. Hvis alle forbrugere fulgte det enkle råd: 'Køb ikke mere mad, end du har brug for, og brug det mad, du har købt' – ja, så ville der ikke være så meget madspild i vores affaldssække. Jeg er glad for, at dette budskab er blevet udbredt af mange forskellige aktører i de seneste år. Af både miljømæssige, økonomiske og etiske årsager skal madspildet blive mindre."	"NO QUESTION"	NA	.	-1	-1	16535	1317	12	10	10
P15	24	False	experiment	"Ressourceeffektivitet i hele produktionskæden for fødevarer skal indgå i EU-arbejdet. Det er allerede nævnt i udkastet til køreplanen for ressourceeffektivitet, og det skal også med i det 7. miljøhandlingsprogram."	"NO QUESTION"	NA	.	-1	-1	11794	1317	13	10	10
P15	25	False	experiment	"I regeringen lægger vi stor vægt på at få skabt brede samarbejder på tværs af myndigheder, organisationer, virksomheder og private. På affaldsområdet har vi allerede et par gode eksempler, som viser, hvordan partnerskaber kan fremme teknologiudvikling."	"NO QUESTION"	NA	.	-1	-1	12897	1317	14	10	10
P15	26	False	experiment	"I arbejdet med den miljøteknologiske handlingsplan skal virksomheder og myndigheder sammen skabe de bedste rammer for en fokuseret teknologiudvikling. Myndighederne får samtidig input til en god og bæredygtig regulering."	"Spørgsmål:\nSkal virksomheder og myndigheder - ifølge taleren - arbejde sammen om teknologiudviklingen?"	1	1	5474	1	13503	1317	15	10	10
P15	27	False	experiment	"Det ene eksempel er et partnerskab, der handler om affald fra neddeling af skrot af biler og elektronik, kaldet shredderaffald. Det deponeres i dag. Men her er der både energi og værdifulde materialer som metal og plast at hente. Et andet eksempel er fosfor i spildevand og slam. Fosfor er en uundværlig plantegødning, som verden kommer til at mangle. Partnerskabet arbejder med at øge fosforudnyttelsen ved at fokusere på udvikling af teknologier og udformning af regler. Målet er, at værdifulde fosforressourcer ikke går tabt."	"NO QUESTION"	NA	.	-1	-1	24776	1317	16	10	10
P15	28	False	experiment	"Som I kan se i regeringsgrundlaget, ønsker vi også, at grønne afgifter og behandlingskrav skal være med til at sikre, at naturens ressourcer bruges mest skånsomt, samtidig med at økonomien kommer i bedring. Miljøforbedringer og økonomisk vækst er hinandens forudsætninger og ikke fjender."	"Spørgsmål:\nMener taleren at vi både kan opnå miljøforbedringer og økonomisk vækst?"	1	1	2821	1	12348	1317	17	10	10
P15	29	False	experiment	"Hvad kan vi så gøre helt konkret? Det er der mange gode bud på. De danske afgifter på deponering og forbrænding af affald har virket. De har været en vigtig del af succesen med at få reduceret de deponerede mængder helt ned til 6 procent af de samlede affaldsmængder. Men det kan blive endnu bedre. Den nye afgift på deponering af farligt affald har betydet, at affaldsproducenter og deponeringsanlæg nu gør sig store anstrengelser for at udnytte ressourcerne endnu bedre og reducere spildet. Det er altså et eksempel på, at afgifter kan være med til at stimulere en udvikling der sætter fokus på ressourcerne."	"NO QUESTION"	NA	.	-1	-1	35081	1317	18	10	10
P15	30	False	experiment	"En anden mulighed er at stille krav til behandlingen af konkrete typer af affald. Men det kan vi kun gøre, når vi har det fulde overblik over de miljømæssige effekter og samtidig kender de samfundsmæssige omkostninger."	"Spørgsmål:\nMener taleren at det - på tidspunktet for talen - er realistisk at stille krav til behandlingen af konkrete typer af affald?"	2	1	9224	0	8453	1317	19	10	10
P15	31	False	experiment	"Et eksempel er forskellige former for genanvendelse af gipsaffald. Miljøstyrelsen er i øjeblikket ved at afslutte de nødvendige livscyklusanalyser og samfundsøkonomiske vurderinger, der skal til, så politikerne får et solidt beslutningsgrundlag. Et andet eksempel er den dagrenovation, som vi brænder i dag. Der er potentiale i at sortere affaldet bedre, så mere af det kan genanvendes. Den organiske del af affaldet kan eksempelvis behandles på biogasanlæg, så energien bliver udnyttet, og plantenæringsstofferne kan udnyttes som gødning på markerne. På den måde kan vi undgå et stort spild af ressourcer og forbedre vores klimaregnskab samtidigt."	"Spørgsmål:\nMener taleren at det er en god ide at sortere dagrenovation bedre end det gøres på tidspunktet for talen?"	1	1	10335	1	24795	1317	20	10	10
P15	32	False	experiment	"Klimaudfordringen er til at tage og føle på. Vi skal lægge vores forbrugs- og produktionsmønstre radikalt om, så vi bruger mindre energi. Og teknologi skal forbedre den måde, energien produceres på."	"NO QUESTION"	NA	.	-1	-1	9416	1317	21	10	10
P15	33	False	experiment	"Affald bidrager til energiproduktion i dag sammen med bl.a. kul og naturgas, men det kræver nytænkning at omlægge energiproduktionen – også i affaldsbranchen. Det er ikke kun et spørgsmål om, hvor meget affald vi kan brænde. Det kan faktisk være en klimamæssig fordel at genanvende affaldet, også selvom det indeholder biomasse."	"NO QUESTION"	NA	.	-1	-1	25098	1317	22	10	10
P15	34	False	experiment	"Mange livscyklusvurderinger dokumenterer, at genanvendelse af glas, papir og metaller sparer CO2. Endelig peger undersøgelser på, at plast bliver en større og større del af vores affald."	"NO QUESTION"	NA	.	-1	-1	10517	1317	23	10	10
P15	35	False	experiment	"For at være åbne for nytænkning, er det vigtigt, at vi sørger for en intelligent tilpasning af forbrændingskapaciteten. Der er ingen, der kan være interesseret i en teknologisk lock-in i form af for mange dyre forbrændingsanlæg. Det vil forhindre innovationen i affaldsbehandlingen, alene fordi anlæggene står der og skal fyldes op med affald."	"NO QUESTION"	NA	.	-1	-1	15639	1317	24	10	10
P15	36	False	experiment	"Her til slut vil jeg gerne runde to meget vigtige emner: sammenhængen mellem affald og miljø, og affald og sundhed. I Danmark genanvender vi det meste bygge- og anlægsaffald. Men der er to store udfordringer, som er vigtige at gribe: Vi skal gøre mere for at undgå farlige stoffer som PCB i det affald, der genanvendes. Det drejer sig både om miljø og sundhed. Vi skal være bedre til at sørge for, at produkter, som genanvendes, har så høj en kvalitet, at bygherrerne efterspørger dem. Vi skal med andre ord arbejde for at mindske downcycling af bygge- og anlægsaffaldet."	"NO QUESTION"	NA	.	-1	-1	31900	1317	25	10	10
P15	37	False	experiment	"Nu har jeg været rundt om forskellige vinkler på affaldspolitikken. De vigtigste budskaber fra mig til jer er: Vi skal udnytte ressourcerne – der skal være ressourcer nok til alle på kloden. Vi skal passe på klimaet – genanvendelse af affald er typisk bedre end anden behandling. Vi skal beskytte miljø og sundhed – vi må ikke sprede farlige stoffer, når vi genanvender affaldet. Det vigtigste er altså at forebygge, at der overhovedet opstår affald, og at genanvende så meget som muligt af det affald, der opstår. Lad os i fællesskab bidrage til Danmarks løsninger på både den økonomiske og ressourcemæssige krise med visionen om at stile mod (næsten) fuld ressourceudnyttelse i 2020."	"NO QUESTION"	NA	.	-1	-1	37050	1317	26	10	10
P15	38	False	experiment	"NY TALE BEGYNDER NU"	"NO QUESTION"	NA	.	-1	-1	11818	1125	-1	10	10
P15	39	False	experiment	"Tak for invitationen til at komme og tale på denne dejlige og specielle aften.\nSkt. Hans aften er speciel - vi fejrer lyset med bål, sange og samvær. Vi samles på tværs af de ting, der ellers nok kan dele os op til hverdag. Vi synger vort fædrelands sange. Vi lytter til hinanden, taler med hinanden. Glæder os over de unge, som har gjort deres uddannelse færdige - de springer ud. Nogle er færdige med folkeskolen og skal videre efter sommerferien på en ungdomsuddannelse. Andre er blevet studenter eller svende. De har gjort, hvad vi forventer af dem: gjort sig dygtigere, læst, arbejdet med stoffet, fået indsigt og viden, dannet sig som mennesker i samspillet med deres undervisere og med hinanden. De er så klar!"	"NO QUESTION"	NA	.	-1	-1	31798	1125	0	10	10
P15	40	False	experiment	"Hvad er det så for et land, som de nu for alvor begynder at tage medansvar for? Hvad er det for et land, som vi står midt i? Det er et land, som er udfordret. Vi er udfordret. Og det gælder både økonomisk og i vores forståelse af, hvem vi er i forhold til vores omverden - også vores nære naboer."	"Spørgsmål:\nMener taleren at Danmarks økonomi er udfordret?"	1	1	8551	1	10761	1125	1	10	10
P15	41	False	experiment	"Økonomisk står vi i en situation, hvor opbygningen af gæld og kommende mangel på arbejdskraft nok er blevet mindre (på grund af aftalen om højere pensionsalder og afvikling af efterløn). Men vi stifter stadig gæld hver eneste dag. Mange af de unge, som netop har gjort deres uddannelse færdig, vil opleve, at de ikke kan finde et job. Det halter med at skabe jobs. Virksomhederne flytter deres produktion eller finder nye underleverandører i andre lande, hvor de også er dygtige og omkostningerne mindre. Udfordringen er med andre ord: Hvad skal vi leve af?"	"NO QUESTION"	NA	.	-1	-1	19573	1125	2	10	10
P15	42	False	experiment	"Der er mange tekniske svar på spørgsmålet om, hvad vi skal leve af. Men der er også et svar, der ikke handler om teknik. Det handler om mennesker. Om at vi som mennesker skaber forandringer gennem den måde, vi lever på."	"NO QUESTION"	NA	.	-1	-1	14726	1125	3	10	10
P15	43	False	experiment	"Danmark har været udfordret så mange gange før. Eksempelvis da prisen på korn faldt og smørret havde for dårlig kvalitet. Ingen havde alene råd - eller mælk nok for den sags skyld - til datidens nyeste teknologi: Centrifugen. I stedet for at den rigeste alligevel købte den og gjorde andre til sine underleverandører, fandt de på noget andet. De fandt på andelsbevægelsen. De lavede en forening, hvor hver mand havde sin stemme, og hvor man afregnede efter, hvor meget mælk man leverede. Alle havde lige indflydelse, men det kunne betale sig at levere mere."	"Spørgsmål:\nFik et medlem i andelsbevægelsen flere stemmer af at levere mere mælk?"	2	2	11976	1	32502	1125	4	10	10
P15	44	False	experiment	"De opfandt ikke centrifugen, men de opfandt en genial måde at organisere sig på, så de virkelig fik gavn af den nye teknologi. Det blev ikke kun til andelsmejerier. Det blev til brugsforeninger og slagterier, minkavl og vindmøllelaug. Det blev til et Danmark præget af bevægelser og foreninger. Nok med stærke formænd og -kvinder, men frem for alt med stærke medlemmer. Fordi det gør en forskel, når man er med til at bestemme."	"NO QUESTION"	NA	.	-1	-1	33724	1125	5	10	10
P15	45	False	experiment	"I 1882, da andelsmejeriet åbnede, havde vi haft demokrati i knap 30 år. Jeg tror, at grunden til at de fandt på det, var demokratiet. Det var jo sådan set demokrati, når der er gensidig respekt. Når hvert menneske tæller lige meget. Når man må sige, hvad man vil og synes at andre skal have og bruge samme rettighed."	"NO QUESTION"	NA	.	-1	-1	16013	1125	6	10	10
P15	46	False	experiment	"Det smør, der kom ud af andelsmejeriets centrifuge, var af god kvalitet. Så god kvalitet, at det kunne sælges uden for landet grænser. Og det har vi så i stort og småt levet af siden. Danmark er en lille, åben økonomi, og vi lever af, at andre vil købe vores varer. Og de varer er der mange af - fødevarer i alle afskygninger, vindmøller, spil og film, design og maskiner. Vi er blevet rige af at butikken har åben. Ikke af at den lukker. Hvem kan købe ind i en lukket butik? Danmark skal være et sted, hvor der er værd at komme - og som er værd at rejse ud fra for at få nye erfaringer, indsigter og ideer med hjem."	"NO QUESTION"	NA	.	-1	-1	23540	1125	7	10	10
P15	47	False	experiment	"Ligesom problemerne i vores moderne verden er grænseoverskridende, så er mulighederne det også. Og grænseoverskridende muligheder får vi mest ud af, hvis vi bruger dem sammen. Jeg ved godt, at det en meget lavtflyvende erfaring, men den er stadig rigtig: Sammen er vi stærke. Og styrken kommer ikke af at være ens, men af at kunne noget forskelligt, så vi kan meget mere sammen, end vi kunne hver for sig."	"NO QUESTION"	NA	.	-1	-1	26474	1125	8	10	10
P15	48	False	experiment	"Det er jo ingen kunst at sige, hvad man vil på en øde ø. Du kan råbe eder, forbandelser og håne lige så tosset du vil. Hvis ingen hører det, har det ingen konsekvenser. Du er bare alene med dit skrigeri. For at noget bliver en værdi - noget vi synes er vigtigt - så kræver det, at vi er flere - at vi laver et samfund. Du er ikke fri, hvis du er alene. Så er du bare alene. Først når du lever sammen med andre, kan du afprøve, om værdierne er noget, der bliver til virkelighed i hverdagen."	"Spørgsmål:\nKan man - ifølge taleren - være fri hvis man er alene?"	2	1	10235	0	24496	1125	9	10	10
P15	49	False	experiment	"Det er jo åbenlyst ikke noget ved ytringsfrihed, hvis der ikke er nogen, der lytter. Der er ikke noget ved friheden til at samle sig, hvis der ikke er nogle at samle sig med. Det er i samspillet med andre mennesker - og især i samspillet med dem, der har magten - at frihed kan blive til levende hverdag."	"NO QUESTION"	NA	.	-1	-1	30087	1125	10	10	10
P15	50	False	experiment	"For en uge siden var jeg også på Bornholm: til Folkemødet i Allinge. Der var taler, debatter, diskussioner, blev stillet spørgsmål og kommenteret. Der blev mumlet i krogene, hvisket ved siderne og grinet og leet. Der var jordbær på tilbud i Brugsen, en kajkant at sidde og spise dem på og mennesker at være sammen med. Det var en stor og god oplevelse - en demokratisk oplevelse: Ytringsfriheden blev brugt, forsamlingsfriheden, fraværet af censur - og den grundlæggende, gensidige respekt var til stede. Det har taget os mange, mange år at opbygge vores demokrati - det tog os over 60 år fra de første mænd fik stemmeret til kvinderne kom med."	"NO QUESTION"	NA	.	-1	-1	29649	1125	11	10	10
P15	51	False	experiment	"I går var jeg i Benghazi. I Libyens næststørste by, hvor det nationale overgangsråd har sæde - hvor Gadaffi har tabt, og oprørerne vundet. Udenrigsministeren havde sammensat en delegation af repræsentanter for hvert parti. Vi var dernede netop for at tale med de mennesker, som vil tage ansvar for overgangen til et nyt Libyen. Et demokratisk og frit Libyen."	"Spørgsmål:\nEr Benghazi Libyens største by?"	2	2	1981	1	15140	1125	12	10	10
P15	52	False	experiment	"Vi mødte hvad der svarede til os selv: Medlemmer af parlamentet. Vi stillede dem spørgsmål, og de svarede - åbent og nogle gange søgende og meget oplysende - på spørgsmål om, hvordan det skal være efter Gadaffi, om kvinders stilling og om de indefrosne midler, som de ikke har adgang til. Og de spurgte os: 'Vil I hjælpe os med at hjælpe de kvinder, som systematisk er blevet voldtaget af Gadaffis styrker? Hvad tænkte I, da I hørte om vores revolution?' Da Gadaffi havde tabt, var der ingenting. Intet. Alt har de skullet bygge op selv. Og det er de i gang med."	"NO QUESTION"	NA	.	-1	-1	20344	1125	13	10	10
P15	53	False	experiment	"Der var en, der spurgte dem, om det kan lade sig gøre: 'Kan Libyen blive frit og demokratisk?' Det var formanden Jalil, der svarede. Han sagde nogenlunde dette her: 'Da der var krig i Jugoslavien, kom Danmark med til EM på afbud. I var undervurderede, og det var jo sådan set ikke meningen, at I skulle med. Jeg heppede på jer. I spillede. Og vandt! Der kan ske uventede og utrolige ting,' sagde han og smilede. Der kan ske uventede og utrolige ting."	"NO QUESTION"	NA	.	-1	-1	16554	1125	14	10	10
P15	54	False	experiment	"I deres mediecenter holder de blandt andet en Facebook-side med internationale nyheder om Libyen ved lige. Finder de en historie på engelsk, så oversætter de den til arabisk, så langt, langt flere kan få adgang til den. Væggene var fyldt med karikaturtegninger af Gadaffi. 'Vi vidste ikke, at nogen kunne det,' sagde én af dem, der fulgte os rundt. 'Med vores revolution kom karikaturerne også.' Pludselig kunne man ytre sig."	"NO QUESTION"	NA	.	-1	-1	16398	1125	15	10	10
P15	55	False	experiment	"Jeg spurgte en ung pige, hvad hun lavede. Hun var i gang med at finde ud af, hvilke foreninger, der var dannet rundt omkring. Hun havde ikke vidst, hvad en forening var. For det var jo ikke tilladt - og der var 17 efterretningstjenester til at tjekke, at man ikke lavede foreninger. De er ligesom os. De ønsker sig frihed, demokrati, et sundhedsvæsen, der fungerer."	"NO QUESTION"	NA	.	-1	-1	11205	1125	16	10	10
P15	56	False	experiment	"Vi har og vi har haft vores kampe i Danmark. Det er deres kamp. Vi kan hjælpe og støtte, men det er deres kamp for det Libyen, som de gerne vil have. Jeg tror, at de vil vinde den, og at de langsomt, men sikkert, vil opbygge et demokrati. I deres land."	"NO QUESTION"	NA	.	-1	-1	9377	1125	17	10	10
P15	57	False	experiment	"Der er også mange, mange forskelle mellem borgerne i ørkenlandet, hvor der kun vokser noget dér, hvor der bliver vandet – og her, hvor der bliver 'vandet' hele tiden. Men i stedet for at remse forskellene op og bruge dem som byggesten i muren mellem dem og os – så kan vi se på det, som vi er fælles om: Menneskerettigheder fordi vi er mennesker og er født lige og frie."	"NO QUESTION"	NA	.	-1	-1	17927	1125	18	10	10
P15	58	False	experiment	"'Menneskerettigheder' – det lyder højstemt og abstrakt, selv for en tale ved Skt. Hans. Men det er hverdag. Det er den gensidige respekt. Friheden til at sige, hvad man mener. Friheden til at være sammen med dem, man vil. Retten til at leve sammen med ens familie."	"NO QUESTION"	NA	.	-1	-1	10224	1125	19	10	10
P15	59	False	experiment	"Så nok er Danmark udfordret. Men det har vi været før. Og det kan vi løse - hvis vi gør det sammen og med forskellene mellem os som styrken. Og når vi kan samles om bålet, kan vi også samles om de problemer, som vi kan løse i fællesskab. Der er ikke længe til valget, men i aften samles vi uden om de politiske skel for at fejre sommeren, lyset og samværet."	"NO QUESTION"	NA	.	-1	-1	25083	1125	20	10	10
P15	60	False	experiment	"Tak for ordet."	"NO QUESTION"	NA	.	-1	-1	3607	1125	21	10	10
P15	61	False	experiment	"NY TALE BEGYNDER NU"	"NO QUESTION"	NA	.	-1	-1	1304	7797	-1	8	8
P15	62	False	experiment	"Det er bålet, der om lidt fanger vore øjne, selv om aftenen er lys. Vi samles om bålet, som vore forfædre har gjort i årtusinder, siden isen forsvandt fra vore breddegrader. De tændte bål for at varme sig. De tændte bål for at holde de vilde dyr væk. De tændte bål for at advare mod fjender. Bålet varmer. Det fortærer. Det udsletter sig selv. Det ligner os mennesker. Der brænder en ild i os. Vi brænder hver især for noget, og vi brænder ud til sidst. "	"NO QUESTION"	NA	.	-1	-1	22191	7797	0	8	8
P15	63	False	experiment	"Hvis vi ikke brænder for noget, så kan vi lige så godt lægge os til at dø. Det er ilden i os, der er vores bestemmelse og giver livet mening. Det er kærlighedens ild. Og hadets ild, desværre. I pinsesalmerne skriver Grundtvig om Helligånden som 'tunger af ild og dog prædiken mild' og om, at 'Tungen gløder, hos hedninger såvel som jøder'. Og i fædrelandssalmen skriver han om ilden som symbol på ånden – i dette tilfælde Helligånden, som er billedet på det åndelige, på det, der adskiller mennesker fra dødt ler. Han bruger ilden som symbol på det, vi i dag kalder sammenhængskraften i et land, som han kaldte 'Kærlighed til fædrelandet'."	"NO QUESTION"	NA	.	-1	-1	31382	7797	1	8	8
P15	64	False	experiment	"Derfor hvad end verden siger og hvad verdensmagten vil,\nStår og falder jordens riger dog med kærlighedens ild,\nHvor den blusser, bor livsgrøden,\nHvor den slukkes, hersker døden."	"NO QUESTION"	NA	.	-1	-1	12608	7797	2	8	8
P15	65	False	experiment	"Både mennesker og lande står og falder med den ild. Ilden er de store følelser. Det er alt det, der ikke forandrer sig over tiden. Det er den, vi finder hos de store dramatikere, selv om deres værker er oldgamle. Shakespeare, Dostojevski, Ibsen, Kaj Munk. De vigtigste ting i tilværelsen forandrer sig ikke. Vi, der er samlet om bålet, har alle de væsentlige ting fælles med dem, der stod og sad om bålet i tidligere tider. Bålet blev også brugt til at bekæmpe ondskaben."	"NO QUESTION"	1	.	-1	-1	33323	7797	3	8	8
P15	66	False	experiment	"Derfor brændte man hekse på bålet – især på den tid, da Christian den Fjerde levede - i 1600-tallet. Han klagede over, at der blev brændt for få hekse. Han ville fordrive det onde. Alene i en enkelt lille by i Norge blev der brændt et stort antal hekse. Chr. IV mente, det måtte være heksenes skyld, når der var misvækst, kolde somre og isvintre. De var skyld i, at han tabte alle sine krige – og blev svigtet af sin elskede (Kirstine Munk)."	"Spørgsmål:\nGav Christian IV - ifølge taleren - hekse skylden for kolde somre?"	1	1	4750	1	18530	7797	4	8	8
P15	67	False	experiment	"'Hver by har sin heks, og hvert sogn sine trolde.' Det har digteren Holger Drachmann ret i. Sådan er det fortsat. Men vi brænder dem ikke. For, som Suzanne Brøgger siger om sig selv: 'Tidligere brændte man heksene på bålet. Nu udgiver man deres bøger!' Det kan man da kalde en tilståelse! Men i stedet for bål har vi så fået medier. I mediernes flammehav fortæres både skyldige og uskyldige, hekse og godtfolk, der ikke passer på. I visse medier, og især i de sociale medier, kan løgne trives og spredes, fordi de ikke bliver imødegået."	"NO QUESTION"	NA	.	-1	-1	24592	7797	5	8	8
P15	68	False	experiment	"Det viser værdien af medier, der lever op til sandhedskrav. Det viser værdien af direkte personkontakt og autentiske oplevelser. Og det forklarer, hvorfor danskerne i stærkt stigende tal strømmer til festivaler, folkemøder, biblioteker, museer osv. De vil have autentiske oplevelser, møde det virkelige frem for mediernes tyggemad. "	"NO QUESTION"	NA	.	-1	-1	15409	7797	6	8	8
P15	69	False	experiment	"Ved I for resten, hvad forskellen er på Vorherre og en journalist? – Vorherre tror ikke, at han ikke er journalist! – Forstod I den! Nu sidder så Mette Frederiksen og forhandler og forhandler. Hun kommer til at sande, som USA's præsident Bill Clinton engang sagde: 'At være politisk leder er som at bestyre en kirkegård. Man har mange under sig, men ingen hører efter!'"	"NO QUESTION"	NA	.	-1	-1	19127	7797	7	8	8
P15	70	False	experiment	"Men lad os her ved bålet glæde os over vores herlige land og den herlige, uforudsigelige sommer. 'Snart kolde farver i sky og vand – snart nøgne piger ved hver en strand.' 'Og stundom ud af din fulde glød / sprang lyn fra skyen i jordens skød.' 'Byger, som går og kommer. Det er den danske sommer.' Jeg stod engang ved et sankthansbål ved Øresund og snakkede med en svensker. Da vi havde sunget 'Danmark nu blunder den lyse nat', som er blevet kåret til Danmarks bedste sang, udbrød han pludselig til min overraskelse: 'Den er jo nationalistisk!' Og sandt nok, den nævner Danmark i hvert andet vers."	"NO QUESTION"	NA	.	-1	-1	25653	7797	8	8	8
P15	71	False	experiment	"Men hvad er der galt i det? Må man heller ikke elske sine forældre, søskende og kærester? Hvad har han mon tænkt sidste lørdag, da Dannebrog fyldte 800 år, og landet flød over med rød-hvide flag og uendelige kærlighedserklæringer? "	"NO QUESTION"	NA	.	-1	-1	8515	7797	9	8	8
P15	72	False	experiment	"– Vi kan jo ikke gøre for, at det danske flag er det smukkeste i verden! Det er jo så gammelt, at vi fik lov at vælge først, før de øvrige mere spraglede nordiske korsflag. Kærligheden til flaget og fædrelandet er jo ikke vendt mod nogle andre. Det er et korsflag. Korset står for tilgivelse og åbenhed over for andre."	"NO QUESTION"	NA	.	-1	-1	20529	7797	10	8	8
P15	73	False	experiment	"Vi har lov at være glade for vores land, når blot det ikke går ud over andre. Vi skal huske dem, der ofrede sig, for at vi kan være frie, og dem, der sled og slæbte, for at vi kunne komme så vidt, som vi er. Vi overlevede nederlagene til Sverige i 1600-tallet, til England i Napoleonskrigene, hvor vi mistede Norge, og til Preussen i 1864. Vi overlevede den kolde krig med Sovjet. Vi så Berlinmuren falde. Polen rev sig fri, og de baltiske lande genopstod. Vi vil også overleve, at England nu vender os og Europa ryggen. Og vi vil overleve, at USA måske engang ikke mere er garanten for vores sikkerhed. Men Putins aggression i Ukraine får det til at løbe koldt ned ad ryggen. "	"NO QUESTION"	NA	.	-1	-1	28654	7797	11	8	8
P15	74	False	experiment	"Nu må vi gentænke hele forsvarspolitikken, ikke mindst med tanke på Arktis, der ikke må være et tomrum, der frister Putin. Her er det oplagt med et nordisk samarbejde, som vi burde udvikle langt stærkere. Sammen er vi store. Vi har verdens største handelsflåde tilsammen, og vores samlede nationalprodukt kan måle sig med Ruslands. Lad os lægge småstatsmentaliteten bag os. Efter Sovjetunionens og Berlinmurens fald har vi meldt os ind i verden. Danske fly opererer uden for landets grænser. Med massiv opbakning i befolkningen. Vi er aktivistiske, med alt hvad det indebærer. For når man melder sig ind i verden, kan man også komme til skade."	"NO QUESTION"	NA	.	-1	-1	33689	7797	12	8	8
P15	75	False	experiment	"Jeg forstår godt, nogen spørger: Skulle vi ikke bare lade hele Mellemøsten sejle i egen sø? – De, der kritiserede indsatsen i Irak, de har jo så fået deres vilje, når det gælder Syrien, hvor vi har forholdt os passive. Og det gik jo endnu værre! Da vi greb ind, gik det galt. Og da vi ikke greb ind, gik det også galt! Mon ikke regeringsforhandlingerne også handler om forsvaret – det amerikanske krav om, at vi skal bruge to procent på forsvaret. Jeg husker en tidligere forhandling med De Radikale, hvor den radikale ordfører slog i bordet: 'I får ikke nye raketter, før I har brugt de gamle!' Vi ved ikke, hvad det næste bliver."	"NO QUESTION"	NA	.	-1	-1	25388	7797	13	8	8
P15	76	False	experiment	"Om endnu en terroraktion vil lykkes. Om det går galt et eller andet sted. Det vigtigste er, at vi ikke dør af skræk og tryghedsnarkomani. Vi kan ikke eliminere enhver risiko. 'Det, vi især skal frygte, er frygten selv', sagde den amerikanske præsident Roosevelt. Det tænker jeg dagligt på, når Rigsdagsgården på Christiansborg lukker for trafik, og når man skal tage sin livrem af i lufthavnens sikkerhedskontrol. Er det ikke lige netop den frygt, terrorister gerne vil skabe? Vi må for alt i verden ikke gå i panik over klimaudfordringen. 'I want you to panic', siger 16-årige Greta Thunberg. Men det er et dårligt råd."	"Spørgsmål:\nCiterer taleren Harry S. Truman for at sige: 'Det, vi især skal frygte, er frygten selv'?"	2	2	4401	1	21082	7797	14	8	8
P15	77	False	experiment	"Lad os i stedet tage udfordringen som en kærkommen anledning til at forske og udvikle os til nye energikilder og nye måder at lagre og spare energi. Danmark har de allerbedste forudsætninger for at gå foran og tilmed tjene penge på det. Lad os ikke blive tryghedsnarkomaner. Vore muligheder er fantastiske, fordi vi har en tillidskultur med utallige ildsjæle i foreningsdanmark, frivilligdanmark og højskoledanmark. Ildsjælene, det er dem, vi skal tænke på, når bålet nu tændes og blusser op og til sidst brænder ned. Og til alle ildsjælene vil jeg sige, som min gamle forstander på Askov Højskole, når han gik hjem og havde fået lidt inden for vesten: 'Herren velsigne og forbavse jer!'"	"NO QUESTION"	NA	.	-1	-1	30276	7797	15	8	8
P15	78	False	experiment	"NY TALE BEGYNDER NU"	"NO QUESTION"	NA	.	-1	-1	3807	1323	-1	8	8
P15	79	False	experiment	"Regn giver liv. Regn er rigtig godt for mange ting – men i små mængder. Det kan vi vist alle blive enige om efter en sommer med kloakvand i kældrene og oversvømmede marker så langt øjet rækker."	"NO QUESTION"	NA	.	-1	-1	9025	1323	0	8	8
P15	80	False	experiment	"Vi står lige nu over for en gigantisk udfordring med at tilpasse os fremtidens klima og håndtere de store regnmængder. Jeg tror, det er helt afgørende, at vi går til arbejdet med en åbenhed overfor nye ideer og nye partnerskaber. Ingen kommune, intet forsyningsselskab og ingen borger kan løse det her problem alene. Det har derfor været meget vigtigt for mig at kunne komme her i dag og starte dialogen med alle jer."	"NO QUESTION"	NA	.	-1	-1	17294	1323	1	8	8
P15	81	False	experiment	"Jeg kommer ikke med den helt store pose penge, som nogen af jer måske havde håbet på. Men jeg kommer heller ikke tomhændet: Jeg kommer med en ny regering, der strutter af energi og initiativlyst."	"NO QUESTION"	NA	.	-1	-1	11863	1323	2	8	8
P15	82	False	experiment	"Den tidligere regering har forsømt at handle på vores viden om klimaforandringer og deres konsekvenser. Den nye regering markerer et skift i tilgangen til at løse klimatilpasning – fra passiv vidensopsamling til at handle i fællesskab og dialog."	"NO QUESTION"	NA	.	-1	-1	8432	1323	3	8	8
P15	83	False	experiment	"Jeg kommer også med en klimatilpasningspakke, der skal styrke og opprioritere indsatsen for klimatilpasning. Pakken bliver en bred palet af initiativer, der med udgangspunkt i regeringsgrundlaget både dækker ny lovgivning, styrket rådgivning og løsningsorienteret dialog. For på trods af de økonomiske krisetider, løfter vi fanen højt for klimatilpasning. Opgaven skal løses. Og den skal løses i fællesskab."	"NO QUESTION"	NA	.	-1	-1	23412	1323	4	8	8
P15	84	False	experiment	"For at få mest muligt ud af de sparsomme midler, gælder det om at løse flere problemer på en gang. På verdensplan står vi med to kriser: den økonomiske krise og klima- og ressourcekrisen. De to kriser hænger sammen og skal også løses sammen. Danmark skal være et grønt demonstrationsland, hvor nye teknologier bliver udviklet og afprøvet, så de bliver efterspurgt globalt."	"NO QUESTION"	NA	.	-1	-1	11559	1323	5	8	8
P15	85	False	experiment	"På mere lokalt plan – det, som vi har fokus på i dag – skal vi også se tingene i sammenhæng. Vand og natur har oprindeligt befundet sig i fine kredsløb. Det har vi i takt med udviklingen af det civiliserede samfund rykket på. Jeg siger selvfølgelig ikke, at vi skal rulle udviklingen tilbage. Men vi har opbygget så utrolig meget viden og teknologi i vores moderne samfund, at vi må kunne bruge noget af det til at få synergieffekter ud af den nødvendige klimatilpasning."	"NO QUESTION"	NA	.	-1	-1	25508	1323	6	8	8
P15	86	False	experiment	"Kan vi for eksempel ikke på én gang fjerne vandet fra det sted, hvor det gør skade, og samtidig bruge det til gavn for naturen, dyrelivet eller til grønne områder i byerne – frem for at sende det ned under jorden i nogle meget dyre betonrør? Det vil vi i regeringen gerne medvirke til."	"NO QUESTION"	NA	.	-1	-1	9356	1323	7	8	8
P15	87	False	experiment	"Det er jer, der er helt tæt på problemerne i hverdagen og ved, hvor skoen trykker – eller skulle vi sige – hvor de utætte sprækker er. Hvis vi skal løfte de store udfordringer, der følger med de hyppigere skybrud, er det helt afgørende, at staten, kommuner, forsyninger, erhvervsliv, forskningsinstitutioner og interesseorganisationer har en tæt dialog. Derfor vil jeg skabe rammerne for en styrket dialog om klimatilpasning. Jeg vil i den kommende tid lancere forskellige initiativer, der inddrager interessenter på en ny måde. Jeg vil blandt andet nedsætte et nationalt dialogforum, der for første gang samler nøgleaktører og beslutningstagere på området."	"NO QUESTION"	NA	.	-1	-1	22789	1323	8	8	8
P15	88	False	experiment	"Når vi tager fat på dialogen om klimatilpasning, er det på mange måder en konkretisering og udfoldning af 'Kodeks for godt samarbejde', som Miljøministeriet og KL i fællesskab har udarbejdet. Jeg er glad for, at vi i fællesskab tager ansvar for dialog og samarbejde."	"Spørgsmål:\nHar Miljøministeriet alene udarbejdet 'Kodeks for godt samarbejde'?"	2	2	3134	1	24045	1323	9	8	8
P15	89	False	experiment	"Der er allerede mange fine eksempler i kommunerne på, hvordan man håndterer oversvømmelserne. Et af de eksempler, jeg har hørt om, er et tæt samarbejde mellem Ikast-Brande Kommunes planafdeling, miljøforvaltning og forsyning, som har forbundet regnvandsbassiner ad snoede kanaler og integreret det i en lokalplan – fuldstændig ligesom stisystemer, broer og legepladser. Løsningen er klimatilpasset og testet for konsekvenserne ved 'monsterregn'."	"Spørgsmål:\nEr nogle kommuner - på tidspunktet for talen - gået i gang med at håndtere oversvømmelser?"	1	1	3460	1	19849	1323	10	8	8
P15	90	False	experiment	"Et andet eksempel er fra Odense, hvor man gik mere radikalt til værks. Efter at vandselskabet havde overvejet flere forskellige traditionelle løsninger, forslog ejerne af de oversvømmelsestruede grunde, at vandselskabet købte deres grunde. Det forslag tog de imod. Husene blev revet ned, og der blev lavet to nye søer. Og så var løsningen faktisk billigere end de løsninger, vandselskabet havde undersøgt."	"NO QUESTION"	NA	.	-1	-1	13536	1323	11	8	8
P15	91	False	experiment	"De to løsninger tjener ikke som facitlister, men som gode eksempler på, hvordan man ved at lytte og samarbejde på nye måder kan finde gode løsninger, der fungerer lige netop der. For der er ingen tvivl om, at løsningerne skal findes lokalt. Derfor er det også helt afgørende, at I i kommunerne lever op til jeres ansvar. Og så lover jeg, at staten vil gøre sit bedste for at give jer gode rammevilkår."	"NO QUESTION"	NA	.	-1	-1	21838	1323	12	8	8
P15	92	False	experiment	"Helt overordnet skal vi have en national handlingsplan for klimatilpasning. Den nationale handlingsplan skal skabe overblik og sammenhæng mellem statens initiativer for klimatilpasning, og den skal fokusere på alle de positive synergieffekter, der kan være af klimatilpasning – både i forhold til vand, natur, biodiversitet, infrastruktur, byudvikling, byggeri og fødevareproduktion."	"NO QUESTION"	NA	.	-1	-1	15612	1323	13	8	8
P15	93	False	experiment	"Regeringen skal drøfte, hvordan den nationale handlingsplan bedst muligt kan tilvejebringes. Men der skal tænkes langsigtet og på tværs af sektorer. Handlingsplanen skal vedtages i regeringen. Et af elementerne kan være en klimatilpasningslov, der understøtter helhedsorienterede løsninger for regnvand og skybrud."	"NO QUESTION"	NA	.	-1	-1	14419	1323	14	8	8
P15	94	False	experiment	"Vi skal også se på finansieringsmulighederne: Både i forhold til den langsigtede tilpasning, hvor vi med en bred vifte af løsninger skal tilpasse os fremtidens klima for at bevare serviceniveauet. Det kan for eksempel være ved at bygge større rør, lave faskiner på private grunde, grønne tage osv. Og også i forhold til de akutte kraftige skybrud, som vi ikke bare kan bygge os ud af. Dem må vi forberede os på ved intelligent styring og opmagasinering, så vandet ledes hen, hvor det gør mindst skade, så længe uvejret står på."	"NO QUESTION"	NA	.	-1	-1	25196	1323	15	8	8
P15	95	False	experiment	"Den miljøteknologiske indsats inden for klimatilpasning er også afgørende. Det er vigtigt, at vi forstår at udnytte vores klimaindsats, så vores erhvervsliv kan generobre en international styrkeposition."	"NO QUESTION"	NA	.	-1	-1	7547	1323	16	8	8
P15	96	False	experiment	"Inden for kort tid nedsætter vi et stærkt hold af kompetente mennesker i en taskforce, der skal hjælpe med at få omsat gode ideer til konkrete handlinger og sørge for, at arbejdet skrider fremad."	"NO QUESTION"	NA	.	-1	-1	12229	1323	17	8	8
P15	97	False	experiment	"Med i taskforcen er også et rejsehold, som etableres i starten af 2012. Det bliver et team af eksperter, som kan rådgive kommuner og virksomheder lokalt. Miljøministeriet har rigtig gode erfaringer med rejsehold fra vindmølleområdet. Ifølge en undersøgelse fra 2010 svarede 93 procent af de kommunale medarbejdere, der blev interviewet, at de var tilfredse eller meget tilfredse med kontakten til vindmøllesekretariatet."	"Spørgsmål:\nKommer rejseholdet fra affaldshåndteringsområdet?"	2	2	3355	1	15627	1323	18	8	8
P15	98	False	experiment	"I løbet af 2012 begynder regeringen at rydde de første lovmæssige barrierer af vejen. Som I sikkert alle ved, vedtog Folketinget for et par år siden en helt ny lov for regulering af vand- og spildevandsforsyningerne – Vandsektorloven. Jeg ved godt, at I ikke ligefrem elsker den lov, men den rummer faktisk mange gode initiativer, hvis vi tilrettelægger det rigtigt."	"NO QUESTION"	NA	.	-1	-1	12290	1323	19	8	8
P15	99	False	experiment	"Som miljøordfører fulgte jeg med i forhandlingerne af præmisserne for loven, og der er ingen tvivl om, at det ikke var hensigten med loven, at den skulle bremse mulighederne for at investere i klimatilpasning eller gennemføre andre miljømæssige initiativer. Tværtimod var hensigten at høste det potentiale for effektivisering, som fandtes i sektoren, og at udnytte det til gavn for miljøet, til investeringer i sektorens infrastruktur – blandt andet kloakrenovering – eller til lavere priser for forbrugerne."	"NO QUESTION"	NA	.	-1	-1	16499	1323	20	8	8
P15	100	False	experiment	"Nu, hvor vi har set, hvordan loven virker i praksis, må vi konstatere, at der er brug for nogle meget skarpe regler omkring beslutning af miljø- og servicemål. Da loven blev forhandlet på plads, var alle enige om at evaluere loven efter tre år. Men jeg mener, at problemerne med miljø- og servicemål er så presserende, at vi bør starte arbejdet med de nødvendige lovændringer nu, En anden vigtig melding er, at regeringen vil sikre en hurtig implementering af direktivet. Det betyder, at risikoområder udpeges af staten her lige om lidt – inden 22. december 2011."	"NO QUESTION"	NA	.	-1	-1	22029	1323	21	8	8
P15	101	False	experiment	"Der er i det hele taget dukket nye behov op. For eksempel har både kommuner og forsyningsselskaber længe efterspurgt et regnvandsbidrag, som motiverer grundejerne til at sende regnvandet ned i jorden eller samle det sammen og for eksempel bruge det til havevanding senere – i stedet for at sende det hele direkte i kloakken. Det vil spare spildevandsforsyningen for at bruge penge på at udbygge kloaknettet."	"NO QUESTION"	NA	.	-1	-1	19043	1323	22	8	8
P15	102	False	experiment	"Der har også været et ønske om, at vi ser på snitfladerne mellem det takstfinansierede og det skattefinansierede område, så nye løsninger på konsekvenserne af skybrud kan finansieres over taksterne. For eksempel har Københavns Kommune spurgt til muligheden for at kunne takstfinansiere forhøjelse af kantsten og ændrede vejprofiler, der bortleder regnvandet, når der kommer et skybrud."	"NO QUESTION"	NA	.	-1	-1	27609	1323	23	8	8
P15	103	False	experiment	"Vi vil også se på planområdet, og der er allerede initiativer i støbeskeen. Jeg vil gå efter, at planloven skal ændres, så I i kommunerne får mulighed for at lægge vægt på klimamæssige hensyn i lokalplanlægningen. I dag kan I kun lokalplanlægge med en arkitektonisk eller funktionel begrundelse."	"Spørgsmål:\nKan kommunerne - på tidspunktet for talen - tage højde for klimamæssige hensyn i lokalplanerne?"	2	2	5183	1	24153	1323	24	8	8
P15	104	False	experiment	"Med alle de nye muligheder i hånden er det så op til jer lokalt at lave nogle gode, langsigtede planer for klimatilpasningen. Derfor vil jeg forpligte jer som kommuner til at lave klimatilpasningsplaner inden for de næste to år. Det er nu, I har muligheden for at udarbejde en gennemtænkt plan for de mange og langsigtede udfordringer og investeringer, der uundgåeligt vil komme de kommende år."	"NO QUESTION"	NA	.	-1	-1	14627	1323	25	8	8
P15	105	False	experiment	"Benyt chancen for at tænke synergieffekter ind fra starten og etabler et godt samarbejde på tværs af fagområder og kommunegrænser – og mellem kommune og forsyning. Det er nu, platformen brænder, og alle er parate til at handle anderledes og finde nye veje at gå."	"NO QUESTION"	NA	.	-1	-1	13912	1323	26	8	8
P15	106	False	experiment	"Fra statslig side skal vi selvfølgelig nok definere nærmere, hvad planen skal indeholde. Og rejseholdets fornemmeste opgave bliver at rådgive kommunerne om opgaven. Nu har jeg fortalt jer om en masse lovinitiativer, som vi planlægger at tage med i klimapakken."	"NO QUESTION"	NA	.	-1	-1	7469	1323	27	8	8
P15	107	False	experiment	"Der kan efterfølgende vise sig behov for yderligere initiativer. Vi vil selvfølgelig se på resultatet af dialog med interessenter, på rejseholdets opsamling og erfaringer og på den generelle udvikling af viden under taskforcen."	"Spørgsmål:\nEr rejseholdet en del af taskforcen?"	1	1	4447	1	8273	1323	28	8	8
P15	108	False	experiment	"Jeg håber, at jeg med mit oplæg har fået understreget, at regeringen vil noget med klimatilpasning. Det er slut med at fedtspille. Som sagt er nøgleordene for regeringens arbejde på dette felt: Fra viden til handling gennem dialog og samarbejde. Jeg er helt sikker på, at vi i den proces, vi nu sætter i gang, i samlet flok vil få en masse nye ideer, som ingen endnu har tænkt på."	"NO QUESTION"	NA	.	-1	-1	15035	1323	29	8	8
P15	109	False	experiment	"Aksel Larsen, som stiftede det parti, jeg selv kommer fra, sagde engang: 'Man skal ikke løfte fanen så højt, at benene ikke kan nå jorden.' Jeg sagde i starten, at vi løfter fanen højt. Men vi gør det ikke uden at bevare jordforbindelsen. Lad os komme i gang med arbejdet, så vi bliver fri for at skovle mere vand ud af kældrene i fremtiden. Jeg håber, I vil være med hele vejen."	"NO QUESTION"	NA	.	-1	-1	12138	1323	30	8	8
