Session_Name_	Trial_Index_	Trial_Recycled_	condition	text	question	expected_key	QUESTION_KEY_PRESSED	QUESTION_RT	QUESTION_ACCURACY	SENTENCE_RT	speechid	paragraphid	counterbalance	LAST_COUNTERBALANCE
P10	1	False	practice	"NY TALE BEGYNDER NU"	"NO QUESTION"	NA	.	-1	-1	38380	1327	-1	0	0
P10	2	False	practice	"Hej alle sammen!"	"NO QUESTION"	NA	.	-1	-1	6263	1327	0	0	0
P10	3	False	practice	"Som I allerede ved, vil vi om lidt tænde for et bål, der vil brænde et skab af – det skab, vi har følt os begrænset af, indelukket i, og som de fleste af os er brudt ud af for at kunne blive lykkeligere."	"NO QUESTION"	NA	.	-1	-1	10349	1327	1	0	0
P10	4	False	practice	"'Men skabe er da ganske praktiske til opbevaring af mangt og meget, ikke sandt?' Jo, opbevaring af værdier, det er rigtigt – men når vi først begynder at sætte spørgsmålstegn ved disse værdier, så føles skabet mere og mere trangt, for det kan ikke rumme vores ideer og følelser mere."	"NO QUESTION"	NA	.	-1	-1	12846	1327	2	0	0
P10	5	False	practice	"'Jamen hvad er der i det skab?' Der er en opfattelse af at kvinder og mænd skal tænke, føle, klæde sig og handle forskelligt – fordi nogle er kvinder og andre er mænd. Kønsroller kalder vi det. Men det rækker faktisk meget længere end bare til roller, vi spiller – rollerne invaderer vores tanker og vores følelser, så vi næsten ikke kan tænke uden for rollen, så længe skabet omslutter os, og i hvert fald først og fremmest føler vi må tage hensyn til dem, der er i skabet..."	"Spørgsmål:\nMener taleren at kønsroller både påvirker hvordan vi handler og tænker?"	1	1	5837	1	24369	1327	3	0	0
P10	6	False	practice	"Når vi endelig bryder ud af skabet og for alvor viser og siger det, der ikke passer i det normative skab, kan vi godt opleve negative reaktioner – men så sandelig også positive – for vi er jo slet ikke alene!"	"NO QUESTION"	NA	.	-1	-1	8839	1327	4	0	0
P10	7	False	practice	"Der er nemlig andre som ligner os mere eller mindre, vi er en broget og mangfoldig flok i alle aldre, hudfarver, kulturelle baggrunde, med og uden handicap, med og uden tro, af forskellig politisk overbevisning, og – vigtigst for os her: af flere forskellige kønsidentiteter og seksuelle orienteringer."	"NO QUESTION"	NA	.	-1	-1	15055	1327	5	0	0
P10	8	False	practice	"Fælles for os er, at vi er en regnbueminoritet i forhold til flertallets skab – men det betyder ikke at majoriteten har ret. Vi vil udefra informere om, at der er andre måder at se tingene på, tilbyde et alternativt syn på livet og verden, som kan hjælpe nogle – især børn og unge – ud af et skab, de mistrives i."	"Spørgsmål:\nMener taleren at minoriteter bør tie med deres verdenssyn?"	2	2	5450	1	17641	1327	6	0	0
P10	9	False	practice	"Lad os brænde skabet med normerne, så vi frigøres fra dem og får retten til at være dem, vi faktisk er!"	"NO QUESTION"	NA	.	-1	-1	5674	1327	7	0	0
P10	10	False	experiment	"NY TALE BEGYNDER NU"	"NO QUESTION"	NA	.	-1	-1	1695	1317	-1	10	10
P10	11	False	experiment	"Vi har to kriser: en økonomisk krise og en klima- og ressourcekrise. De skal løses sammen. Lige nu står vi på en brændende platform: Kina sidder på markedet for ressourcer som blandt andet sjældne mineraler og en lang række andre værdifulde og kritiske ressourcer, samtidig med at både ressourceknaphed og -forbrug stiger."	"NO QUESTION"	NA	.	-1	-1	13291	1317	0	10	10
P10	12	False	experiment	"EU's vision for 2020 er at 50 procent af husholdningsaffaldet genanvendes. Vores fælles vision for 2020 skal være endnu mere ambitiøs – og stile mod at deponering stort set ophører og genanvendelsen stiger markant. Regeringens 50 nye millioner til miljøteknologi på finansloven skal understøtte udviklingen. I skal bidrage med løsninger! Bedre ressourceforvaltning og affaldsforebyggelse er nogle af nøgleordene."	"NO QUESTION"	NA	.	-1	-1	27000	1317	1	10	10
P10	13	False	experiment	"Når affaldet genanvendes, skal det gerne blive til produkter af høj kvalitet, som forbrugerne vil købe. Vi skal med andre ord undgå downcycling og ikke forringe kvaliteten af materialerne. Målet er at recirkulere mange flere af de værdifulde ressourcer, der findes i affaldet."	"NO QUESTION"	NA	.	-1	-1	15931	1317	2	10	10
P10	14	False	experiment	"Som for eksempel når affald af Rockwool i Danmark kan blive indsamlet og genbrugt til ny Rockwool. På samme tid får man en billig råvare, der kan erstatte nye råvarer, og man er fri for at skulle deponere affaldet. Begge dele sparer kloden for udledning af en masse CO2."	"NO QUESTION"	NA	.	-1	-1	12813	1317	3	10	10
P10	15	False	experiment	"Det er ikke nok kun at overveje energiindholdet i affaldet – der findes mange andre værdifulde og udtømmelige ressourcer, som ikke bør gå til spilde. Eksempelvis metaller og sjældne jordarter som anvendes i mobiltelefoner og pc'er. Både europæiske og nationale initiativer er nødvendige for at øge ressourceeffektiviteten i Danmark og EU. Derfor bliver et af de vigtige punkter på dagsordenen for det danske formandskab også at arbejde med Ecodesign-direktivet. Det skal ikke bare begrænse produkternes energiforbrug, men også designe produkterne, så det er lettere at recirkulere ressourcerne."	"NO QUESTION"	NA	.	-1	-1	59639	1317	4	10	10
P10	16	False	experiment	"På EU-niveau ved vi, at: 3⁄4 af EU's påvirkning af miljøet stammer fra fødevarer og drikkevarer, privat transport og boliger. Langt det meste af produkternes miljøpåvirkning bestemmes i designfasen."	"NO QUESTION"	NA	.	-1	-1	16717	1317	5	10	10
P10	17	False	experiment	"Hvordan kommer så vi videre? Et væsentligt skridt er Kommissionens 'Køreplan til et ressourceeffektivt Europa'. Det overordnede mål: et lavere træk på klodens ressourcer via mere og bedre genanvendelse. Jeg har valgt et par eksempler – der er mange at vælge imellem: Det første er flere offentlige grønne indkøb. Her spiller blandt andre kommunerne en rigtig stor rolle. Vi skal også have affaldshierarkiet mere tydeligt i spil, så det indgår klart i vores regulering på tværs af sektoren – for eksempel ved regler om produkter eller krav til bygge- og anlægsarbejder."	"NO QUESTION"	NA	.	-1	-1	37126	1317	6	10	10
P10	18	False	experiment	"Det tredje eksempel, som også flugter med det nye regeringsgrundlag, er ønsket om at skatter og afgifter flyttes fra arbejde til miljø og ressourcer. Det skal understøtte grønne jobs og sikre, at der er betaling for både ressourceforbrug og miljøbelastning."	"NO QUESTION"	NA	.	-1	-1	24706	1317	7	10	10
P10	19	False	experiment	"Et nyt 7. miljøhandlingsprogram i EU skal konkretisere køreplanen. Under overskriften 'Greening the economy' skal et langsigtet 10-årigt program bidrage til Europas grønne omstilling af økonomien. Det skal bygge videre på ressourceeffektivitets-dagsordenen, indsatsen for biodiversitet, vand, klima samt miljø og sundhed, som var hovedindsatsområderne i det 6. miljøhandlingsprogram. Bæredygtig forvaltning af ressourcer og affald er fortsat et område, der prioriteres højt på europæisk plan."	"NO QUESTION"	NA	.	-1	-1	31979	1317	8	10	10
P10	20	False	experiment	"Også på den hjemlige bane, er der politisk fokus på ressourcer. Den danske affaldsstrategi 2013-18 bliver en ressourcestrategi. Ressourcestrategien skal være vores nationale plan for, hvad der skal gøres. Den vil blive fulgt af en plan for, hvordan vi forebygger affald i 2014-19, som skal laves for første gang."	"NO QUESTION"	NA	.	-1	-1	23259	1317	9	10	10
P10	21	False	experiment	"Begge planer skal være klare og prioriterede: Hvad er vigtigst at nå for Danmark? Hvad er realistiske, men samtidig ambitiøse målsætninger? Hvilke midler skal vi have på plads for at nå målene? Det er spørgsmål, som jeg er sikker på, at branchen har nogle bud på. Jeg håber, I vil være med til at finde løsninger på tværs, der kan gavne både miljø, økonomi og konkurrenceevne. Ikke bare fordi det er bedst, men fordi det er den eneste løsning."	"NO QUESTION"	NA	.	-1	-1	22070	1317	10	10	10
P10	22	False	experiment	"Det allerbedste vil selvfølgelig være, hvis vi kan undgå at producere affald. Men hvordan gør vi det? Her tager jeg udgangspunkt i, hvad den enkelte kan gøre. Som forbrugere kan vi købe kvalitetsvarer, bruge tingene mere og længere og reparere dem i stedet for at smide dem ud. Vi kan også købe brugt, sælge, bytte eller forære vores ting væk. På den måde får de et længere liv, og flere får glæde af dem."	"NO QUESTION"	NA	.	-1	-1	18364	1317	11	10	10
P10	23	False	experiment	"Med hensyn til madspild burde det være endnu nemmere. Hvis alle forbrugere fulgte det enkle råd: 'Køb ikke mere mad, end du har brug for, og brug det mad, du har købt' – ja, så ville der ikke være så meget madspild i vores affaldssække. Jeg er glad for, at dette budskab er blevet udbredt af mange forskellige aktører i de seneste år. Af både miljømæssige, økonomiske og etiske årsager skal madspildet blive mindre."	"NO QUESTION"	NA	.	-1	-1	23870	1317	12	10	10
P10	24	False	experiment	"Ressourceeffektivitet i hele produktionskæden for fødevarer skal indgå i EU-arbejdet. Det er allerede nævnt i udkastet til køreplanen for ressourceeffektivitet, og det skal også med i det 7. miljøhandlingsprogram."	"NO QUESTION"	NA	.	-1	-1	19481	1317	13	10	10
P10	25	False	experiment	"I regeringen lægger vi stor vægt på at få skabt brede samarbejder på tværs af myndigheder, organisationer, virksomheder og private. På affaldsområdet har vi allerede et par gode eksempler, som viser, hvordan partnerskaber kan fremme teknologiudvikling."	"NO QUESTION"	NA	.	-1	-1	9582	1317	14	10	10
P10	26	False	experiment	"I arbejdet med den miljøteknologiske handlingsplan skal virksomheder og myndigheder sammen skabe de bedste rammer for en fokuseret teknologiudvikling. Myndighederne får samtidig input til en god og bæredygtig regulering."	"Spørgsmål:\nSkal virksomheder og myndigheder - ifølge taleren - arbejde sammen om teknologiudviklingen?"	1	1	6246	1	12041	1317	15	10	10
P10	27	False	experiment	"Det ene eksempel er et partnerskab, der handler om affald fra neddeling af skrot af biler og elektronik, kaldet shredderaffald. Det deponeres i dag. Men her er der både energi og værdifulde materialer som metal og plast at hente. Et andet eksempel er fosfor i spildevand og slam. Fosfor er en uundværlig plantegødning, som verden kommer til at mangle. Partnerskabet arbejder med at øge fosforudnyttelsen ved at fokusere på udvikling af teknologier og udformning af regler. Målet er, at værdifulde fosforressourcer ikke går tabt."	"NO QUESTION"	NA	.	-1	-1	35879	1317	16	10	10
P10	28	False	experiment	"Som I kan se i regeringsgrundlaget, ønsker vi også, at grønne afgifter og behandlingskrav skal være med til at sikre, at naturens ressourcer bruges mest skånsomt, samtidig med at økonomien kommer i bedring. Miljøforbedringer og økonomisk vækst er hinandens forudsætninger og ikke fjender."	"Spørgsmål:\nMener taleren at vi både kan opnå miljøforbedringer og økonomisk vækst?"	1	1	6688	1	16019	1317	17	10	10
P10	29	False	experiment	"Hvad kan vi så gøre helt konkret? Det er der mange gode bud på. De danske afgifter på deponering og forbrænding af affald har virket. De har været en vigtig del af succesen med at få reduceret de deponerede mængder helt ned til 6 procent af de samlede affaldsmængder. Men det kan blive endnu bedre. Den nye afgift på deponering af farligt affald har betydet, at affaldsproducenter og deponeringsanlæg nu gør sig store anstrengelser for at udnytte ressourcerne endnu bedre og reducere spildet. Det er altså et eksempel på, at afgifter kan være med til at stimulere en udvikling der sætter fokus på ressourcerne."	"NO QUESTION"	NA	.	-1	-1	30847	1317	18	10	10
P10	30	False	experiment	"En anden mulighed er at stille krav til behandlingen af konkrete typer af affald. Men det kan vi kun gøre, når vi har det fulde overblik over de miljømæssige effekter og samtidig kender de samfundsmæssige omkostninger."	"Spørgsmål:\nMener taleren at det - på tidspunktet for talen - er realistisk at stille krav til behandlingen af konkrete typer af affald?"	2	2	8171	1	12534	1317	19	10	10
P10	31	False	experiment	"Et eksempel er forskellige former for genanvendelse af gipsaffald. Miljøstyrelsen er i øjeblikket ved at afslutte de nødvendige livscyklusanalyser og samfundsøkonomiske vurderinger, der skal til, så politikerne får et solidt beslutningsgrundlag. Et andet eksempel er den dagrenovation, som vi brænder i dag. Der er potentiale i at sortere affaldet bedre, så mere af det kan genanvendes. Den organiske del af affaldet kan eksempelvis behandles på biogasanlæg, så energien bliver udnyttet, og plantenæringsstofferne kan udnyttes som gødning på markerne. På den måde kan vi undgå et stort spild af ressourcer og forbedre vores klimaregnskab samtidigt."	"Spørgsmål:\nMener taleren at det er en god ide at sortere dagrenovation bedre end det gøres på tidspunktet for talen?"	1	1	6547	1	42943	1317	20	10	10
P10	32	False	experiment	"Klimaudfordringen er til at tage og føle på. Vi skal lægge vores forbrugs- og produktionsmønstre radikalt om, så vi bruger mindre energi. Og teknologi skal forbedre den måde, energien produceres på."	"NO QUESTION"	NA	.	-1	-1	11178	1317	21	10	10
P10	33	False	experiment	"Affald bidrager til energiproduktion i dag sammen med bl.a. kul og naturgas, men det kræver nytænkning at omlægge energiproduktionen – også i affaldsbranchen. Det er ikke kun et spørgsmål om, hvor meget affald vi kan brænde. Det kan faktisk være en klimamæssig fordel at genanvende affaldet, også selvom det indeholder biomasse."	"NO QUESTION"	NA	.	-1	-1	16005	1317	22	10	10
P10	34	False	experiment	"Mange livscyklusvurderinger dokumenterer, at genanvendelse af glas, papir og metaller sparer CO2. Endelig peger undersøgelser på, at plast bliver en større og større del af vores affald."	"NO QUESTION"	NA	.	-1	-1	11936	1317	23	10	10
P10	35	False	experiment	"For at være åbne for nytænkning, er det vigtigt, at vi sørger for en intelligent tilpasning af forbrændingskapaciteten. Der er ingen, der kan være interesseret i en teknologisk lock-in i form af for mange dyre forbrændingsanlæg. Det vil forhindre innovationen i affaldsbehandlingen, alene fordi anlæggene står der og skal fyldes op med affald."	"NO QUESTION"	NA	.	-1	-1	18036	1317	24	10	10
P10	36	False	experiment	"Her til slut vil jeg gerne runde to meget vigtige emner: sammenhængen mellem affald og miljø, og affald og sundhed. I Danmark genanvender vi det meste bygge- og anlægsaffald. Men der er to store udfordringer, som er vigtige at gribe: Vi skal gøre mere for at undgå farlige stoffer som PCB i det affald, der genanvendes. Det drejer sig både om miljø og sundhed. Vi skal være bedre til at sørge for, at produkter, som genanvendes, har så høj en kvalitet, at bygherrerne efterspørger dem. Vi skal med andre ord arbejde for at mindske downcycling af bygge- og anlægsaffaldet."	"NO QUESTION"	NA	.	-1	-1	30899	1317	25	10	10
P10	37	False	experiment	"Nu har jeg været rundt om forskellige vinkler på affaldspolitikken. De vigtigste budskaber fra mig til jer er: Vi skal udnytte ressourcerne – der skal være ressourcer nok til alle på kloden. Vi skal passe på klimaet – genanvendelse af affald er typisk bedre end anden behandling. Vi skal beskytte miljø og sundhed – vi må ikke sprede farlige stoffer, når vi genanvender affaldet. Det vigtigste er altså at forebygge, at der overhovedet opstår affald, og at genanvende så meget som muligt af det affald, der opstår. Lad os i fællesskab bidrage til Danmarks løsninger på både den økonomiske og ressourcemæssige krise med visionen om at stile mod (næsten) fuld ressourceudnyttelse i 2020."	"NO QUESTION"	NA	.	-1	-1	38543	1317	26	10	10
P10	38	False	experiment	"NY TALE BEGYNDER NU"	"NO QUESTION"	NA	.	-1	-1	2565	1125	-1	10	10
P10	39	False	experiment	"Tak for invitationen til at komme og tale på denne dejlige og specielle aften.\nSkt. Hans aften er speciel - vi fejrer lyset med bål, sange og samvær. Vi samles på tværs af de ting, der ellers nok kan dele os op til hverdag. Vi synger vort fædrelands sange. Vi lytter til hinanden, taler med hinanden. Glæder os over de unge, som har gjort deres uddannelse færdige - de springer ud. Nogle er færdige med folkeskolen og skal videre efter sommerferien på en ungdomsuddannelse. Andre er blevet studenter eller svende. De har gjort, hvad vi forventer af dem: gjort sig dygtigere, læst, arbejdet med stoffet, fået indsigt og viden, dannet sig som mennesker i samspillet med deres undervisere og med hinanden. De er så klar!"	"NO QUESTION"	NA	.	-1	-1	34025	1125	0	10	10
P10	40	False	experiment	"Hvad er det så for et land, som de nu for alvor begynder at tage medansvar for? Hvad er det for et land, som vi står midt i? Det er et land, som er udfordret. Vi er udfordret. Og det gælder både økonomisk og i vores forståelse af, hvem vi er i forhold til vores omverden - også vores nære naboer."	"Spørgsmål:\nMener taleren at Danmarks økonomi er udfordret?"	1	2	4923	0	12893	1125	1	10	10
P10	41	False	experiment	"Økonomisk står vi i en situation, hvor opbygningen af gæld og kommende mangel på arbejdskraft nok er blevet mindre (på grund af aftalen om højere pensionsalder og afvikling af efterløn). Men vi stifter stadig gæld hver eneste dag. Mange af de unge, som netop har gjort deres uddannelse færdig, vil opleve, at de ikke kan finde et job. Det halter med at skabe jobs. Virksomhederne flytter deres produktion eller finder nye underleverandører i andre lande, hvor de også er dygtige og omkostningerne mindre. Udfordringen er med andre ord: Hvad skal vi leve af?"	"NO QUESTION"	NA	.	-1	-1	25769	1125	2	10	10
P10	42	False	experiment	"Der er mange tekniske svar på spørgsmålet om, hvad vi skal leve af. Men der er også et svar, der ikke handler om teknik. Det handler om mennesker. Om at vi som mennesker skaber forandringer gennem den måde, vi lever på."	"NO QUESTION"	NA	.	-1	-1	9336	1125	3	10	10
P10	43	False	experiment	"Danmark har været udfordret så mange gange før. Eksempelvis da prisen på korn faldt og smørret havde for dårlig kvalitet. Ingen havde alene råd - eller mælk nok for den sags skyld - til datidens nyeste teknologi: Centrifugen. I stedet for at den rigeste alligevel købte den og gjorde andre til sine underleverandører, fandt de på noget andet. De fandt på andelsbevægelsen. De lavede en forening, hvor hver mand havde sin stemme, og hvor man afregnede efter, hvor meget mælk man leverede. Alle havde lige indflydelse, men det kunne betale sig at levere mere."	"Spørgsmål:\nFik et medlem i andelsbevægelsen flere stemmer af at levere mere mælk?"	2	1	4231	0	32785	1125	4	10	10
P10	44	False	experiment	"De opfandt ikke centrifugen, men de opfandt en genial måde at organisere sig på, så de virkelig fik gavn af den nye teknologi. Det blev ikke kun til andelsmejerier. Det blev til brugsforeninger og slagterier, minkavl og vindmøllelaug. Det blev til et Danmark præget af bevægelser og foreninger. Nok med stærke formænd og -kvinder, men frem for alt med stærke medlemmer. Fordi det gør en forskel, når man er med til at bestemme."	"NO QUESTION"	NA	.	-1	-1	25834	1125	5	10	10
P10	45	False	experiment	"I 1882, da andelsmejeriet åbnede, havde vi haft demokrati i knap 30 år. Jeg tror, at grunden til at de fandt på det, var demokratiet. Det var jo sådan set demokrati, når der er gensidig respekt. Når hvert menneske tæller lige meget. Når man må sige, hvad man vil og synes at andre skal have og bruge samme rettighed."	"NO QUESTION"	NA	.	-1	-1	24296	1125	6	10	10
P10	46	False	experiment	"Det smør, der kom ud af andelsmejeriets centrifuge, var af god kvalitet. Så god kvalitet, at det kunne sælges uden for landet grænser. Og det har vi så i stort og småt levet af siden. Danmark er en lille, åben økonomi, og vi lever af, at andre vil købe vores varer. Og de varer er der mange af - fødevarer i alle afskygninger, vindmøller, spil og film, design og maskiner. Vi er blevet rige af at butikken har åben. Ikke af at den lukker. Hvem kan købe ind i en lukket butik? Danmark skal være et sted, hvor der er værd at komme - og som er værd at rejse ud fra for at få nye erfaringer, indsigter og ideer med hjem."	"NO QUESTION"	NA	.	-1	-1	38739	1125	7	10	10
P10	47	False	experiment	"Ligesom problemerne i vores moderne verden er grænseoverskridende, så er mulighederne det også. Og grænseoverskridende muligheder får vi mest ud af, hvis vi bruger dem sammen. Jeg ved godt, at det en meget lavtflyvende erfaring, men den er stadig rigtig: Sammen er vi stærke. Og styrken kommer ikke af at være ens, men af at kunne noget forskelligt, så vi kan meget mere sammen, end vi kunne hver for sig."	"NO QUESTION"	NA	.	-1	-1	22124	1125	8	10	10
P10	48	False	experiment	"Det er jo ingen kunst at sige, hvad man vil på en øde ø. Du kan råbe eder, forbandelser og håne lige så tosset du vil. Hvis ingen hører det, har det ingen konsekvenser. Du er bare alene med dit skrigeri. For at noget bliver en værdi - noget vi synes er vigtigt - så kræver det, at vi er flere - at vi laver et samfund. Du er ikke fri, hvis du er alene. Så er du bare alene. Først når du lever sammen med andre, kan du afprøve, om værdierne er noget, der bliver til virkelighed i hverdagen."	"Spørgsmål:\nKan man - ifølge taleren - være fri hvis man er alene?"	2	1	3313	0	32184	1125	9	10	10
P10	49	False	experiment	"Det er jo åbenlyst ikke noget ved ytringsfrihed, hvis der ikke er nogen, der lytter. Der er ikke noget ved friheden til at samle sig, hvis der ikke er nogle at samle sig med. Det er i samspillet med andre mennesker - og især i samspillet med dem, der har magten - at frihed kan blive til levende hverdag."	"NO QUESTION"	NA	.	-1	-1	16249	1125	10	10	10
P10	50	False	experiment	"For en uge siden var jeg også på Bornholm: til Folkemødet i Allinge. Der var taler, debatter, diskussioner, blev stillet spørgsmål og kommenteret. Der blev mumlet i krogene, hvisket ved siderne og grinet og leet. Der var jordbær på tilbud i Brugsen, en kajkant at sidde og spise dem på og mennesker at være sammen med. Det var en stor og god oplevelse - en demokratisk oplevelse: Ytringsfriheden blev brugt, forsamlingsfriheden, fraværet af censur - og den grundlæggende, gensidige respekt var til stede. Det har taget os mange, mange år at opbygge vores demokrati - det tog os over 60 år fra de første mænd fik stemmeret til kvinderne kom med."	"NO QUESTION"	NA	.	-1	-1	34348	1125	11	10	10
P10	51	False	experiment	"I går var jeg i Benghazi. I Libyens næststørste by, hvor det nationale overgangsråd har sæde - hvor Gadaffi har tabt, og oprørerne vundet. Udenrigsministeren havde sammensat en delegation af repræsentanter for hvert parti. Vi var dernede netop for at tale med de mennesker, som vil tage ansvar for overgangen til et nyt Libyen. Et demokratisk og frit Libyen."	"Spørgsmål:\nEr Benghazi Libyens største by?"	2	2	2837	1	18708	1125	12	10	10
P10	52	False	experiment	"Vi mødte hvad der svarede til os selv: Medlemmer af parlamentet. Vi stillede dem spørgsmål, og de svarede - åbent og nogle gange søgende og meget oplysende - på spørgsmål om, hvordan det skal være efter Gadaffi, om kvinders stilling og om de indefrosne midler, som de ikke har adgang til. Og de spurgte os: 'Vil I hjælpe os med at hjælpe de kvinder, som systematisk er blevet voldtaget af Gadaffis styrker? Hvad tænkte I, da I hørte om vores revolution?' Da Gadaffi havde tabt, var der ingenting. Intet. Alt har de skullet bygge op selv. Og det er de i gang med."	"NO QUESTION"	NA	.	-1	-1	32453	1125	13	10	10
P10	53	False	experiment	"Der var en, der spurgte dem, om det kan lade sig gøre: 'Kan Libyen blive frit og demokratisk?' Det var formanden Jalil, der svarede. Han sagde nogenlunde dette her: 'Da der var krig i Jugoslavien, kom Danmark med til EM på afbud. I var undervurderede, og det var jo sådan set ikke meningen, at I skulle med. Jeg heppede på jer. I spillede. Og vandt! Der kan ske uventede og utrolige ting,' sagde han og smilede. Der kan ske uventede og utrolige ting."	"NO QUESTION"	NA	.	-1	-1	19688	1125	14	10	10
P10	54	False	experiment	"I deres mediecenter holder de blandt andet en Facebook-side med internationale nyheder om Libyen ved lige. Finder de en historie på engelsk, så oversætter de den til arabisk, så langt, langt flere kan få adgang til den. Væggene var fyldt med karikaturtegninger af Gadaffi. 'Vi vidste ikke, at nogen kunne det,' sagde én af dem, der fulgte os rundt. 'Med vores revolution kom karikaturerne også.' Pludselig kunne man ytre sig."	"NO QUESTION"	NA	.	-1	-1	21390	1125	15	10	10
P10	55	False	experiment	"Jeg spurgte en ung pige, hvad hun lavede. Hun var i gang med at finde ud af, hvilke foreninger, der var dannet rundt omkring. Hun havde ikke vidst, hvad en forening var. For det var jo ikke tilladt - og der var 17 efterretningstjenester til at tjekke, at man ikke lavede foreninger. De er ligesom os. De ønsker sig frihed, demokrati, et sundhedsvæsen, der fungerer."	"NO QUESTION"	NA	.	-1	-1	14043	1125	16	10	10
P10	56	False	experiment	"Vi har og vi har haft vores kampe i Danmark. Det er deres kamp. Vi kan hjælpe og støtte, men det er deres kamp for det Libyen, som de gerne vil have. Jeg tror, at de vil vinde den, og at de langsomt, men sikkert, vil opbygge et demokrati. I deres land."	"NO QUESTION"	NA	.	-1	-1	12092	1125	17	10	10
P10	57	False	experiment	"Der er også mange, mange forskelle mellem borgerne i ørkenlandet, hvor der kun vokser noget dér, hvor der bliver vandet – og her, hvor der bliver 'vandet' hele tiden. Men i stedet for at remse forskellene op og bruge dem som byggesten i muren mellem dem og os – så kan vi se på det, som vi er fælles om: Menneskerettigheder fordi vi er mennesker og er født lige og frie."	"NO QUESTION"	NA	.	-1	-1	20994	1125	18	10	10
P10	58	False	experiment	"'Menneskerettigheder' – det lyder højstemt og abstrakt, selv for en tale ved Skt. Hans. Men det er hverdag. Det er den gensidige respekt. Friheden til at sige, hvad man mener. Friheden til at være sammen med dem, man vil. Retten til at leve sammen med ens familie."	"NO QUESTION"	NA	.	-1	-1	13966	1125	19	10	10
P10	59	False	experiment	"Så nok er Danmark udfordret. Men det har vi været før. Og det kan vi løse - hvis vi gør det sammen og med forskellene mellem os som styrken. Og når vi kan samles om bålet, kan vi også samles om de problemer, som vi kan løse i fællesskab. Der er ikke længe til valget, men i aften samles vi uden om de politiske skel for at fejre sommeren, lyset og samværet."	"NO QUESTION"	NA	.	-1	-1	24920	1125	20	10	10
P10	60	False	experiment	"Tak for ordet."	"NO QUESTION"	NA	.	-1	-1	1859	1125	21	10	10
P10	61	False	experiment	"NY TALE BEGYNDER NU"	"NO QUESTION"	NA	.	-1	-1	1281	7856	-1	7	7
P10	62	False	experiment	"Kære alle, hvoraf de fleste nok primært er her, fordi de godt kan lide at kigge på et bål og kun sekundært for at høre en ti minutter lang tale fra en person, de ikke ved, hvem er. Jeg kan sige, at jeg heller ikke helt selv ved, hvem jeg er, men at jeg ved, at jeg hedder Anna. Nogle gange hedder jeg også Veronika Katinka. Det er mit alter ego. Det er dér, det bliver lidt forvirrende for mig, men i dag hedder jeg bare Anna, så lad os starte med det. At jeg hedder Anna, og at jeg er meget nervøs, selvom jeg læste retorik på universitetet i to år og derfor burde vide et og andet om at holde en båltale. "	"NO QUESTION"	NA	.	-1	-1	14450	7856	0	7	7
P10	63	False	experiment	"Fx har jeg lært af gode, gamle Obama, at det er godt lige at kommentere på noget i situationen, så det virker, som om man er til stede i situationen og ikke bare lirer noget af, man har forberedt forud for situationen, så det vil jeg selvfølgelig også gøre: (noget om vejret eller regnen eller lignende). Jeg har ikke de store minder forbundet med sankthansaften, hvilket jo gør mig til en oplagt taler på sankthansaften. Jeg kan faktisk kun huske sankthansaften sidste år, men det er nok fordi, at jeg blev indlagt på den lukkede på sankthansaften sidste år. Jeg havde, for nu at blive i aftenens tema, ukrudt i hovedet, der havde spredt sig så meget, at jeg simpelthen ikke havde lyst til at leve mere."	"NO QUESTION"	NA	.	-1	-1	38242	7856	1	7	7
P10	64	False	experiment	"En hurtig googlesøgning på 'båltale' lod mig forstå, at det er populært at citere fra Midsommervisen, når man holder båltale, så det vil jeg – som det originale menneske jeg er – selvfølgelig også gøre: 'Hver by har sin heks, og hvert sogn sine trolde' synger man, og det er nok fx mig, man refererer til, tænker jeg. Københavns egen lille heksetrold, en kodyl kombination af messias- og mindreværdskomplekser, en selvfed psykotisk cutter med ondt i mavsen, der efter 10 års kamp mod systemet endelig måtte se sig slået og spærret inde på Bispebjerg Hospital. Så dér lå jeg, på én af årets længste dage, og kiggede rundt i et rum, der bare var hvidt."	"NO QUESTION"	NA	.	-1	-1	32561	7856	2	7	7
P10	65	False	experiment	"Nogle gange, for adspredelsens skyld, gik jeg ud på mit lille badeværelse for at kigge på det store, sorte hul, der var i loftet, mens jeg sendte en kærlig tanke til den tidligere beboer, der enten havde forsøgt at hænge sig eller havde slået hul i bare frustration, og jeg forstod det egentlig godt. Min go-to-ting, når livet bliver svært, er tragikomik. "	"NO QUESTION"	NA	.	-1	-1	15628	7856	3	7	7
P10	66	False	experiment	"Det kan fx være, når man midt i valgkampen erfarer, at Rasmus Paludan ligner live-action-udgaven af Karlsson på taget og griner lidt af det. Det kan også fx være, når ens nabo på den lukkede får en guitar ind på den lukkede, men så kun kan spille åbningsriffet fra Sweet Home Alabama, hvilket han så kompenserer for ved til gengæld at spille det konstant og over det hele på den lukkede."	"NO QUESTION"	NA	.	-1	-1	16274	7856	4	7	7
P10	67	False	experiment	"Det kan man også grine lidt af, indtil man erfarer, at tragedien nogle gange vinder, fordi ens nabo på den lukkede om natten smører sit værelse på den lukkede ind i egen afføring. Jeg går ud fra, at det var i frustration – eller også blev han bare træt af hvidt i hvidt. Og jeg forstod det egentlig godt. Jeg var ikke indlagt ret længe af den simple årsag, at jeg slet ikke var syg nok, men det forunderlige ved at have været indlagt er, at folk så, modsat tidligere, står klar til at hjælpe én. Så det seneste år har jeg fx fået hjælp til at luge ud i mit hoved, godt hjulpet på vej af den antipsykotiske medicin Abilify, der abilifyer mig til at gøre sjove ting, såsom fx at sidde på en stol i mere end ti minutter ad gangen eller at have samtaler med mennesker uden at tænke på, hvordan de mon ville se ud, hvis deres øjne var tomater. "	"NO QUESTION"	NA	.	-1	-1	50411	7856	5	7	7
P10	68	False	experiment	"Altså på mange måder et kedeligere liv, men et liv jeg, modsat tidligere, gerne vil leve. Da jeg fandt ud af, at jeg skulle holde denne her båltale, og at temaet til arrangementet var ukrudt, var min umiddelbare indskydelse at tale om, at man måske skulle prøve at se på det smukke i ukrudt, her forstået som en virkelig corny metafor for det grimme i ens hoved. "	"NO QUESTION"	NA	.	-1	-1	19846	7856	6	7	7
P10	69	False	experiment	"Man kan luge og luge, men ukrudtet kommer altid tilbage, og derfor kan man måske lige så godt slutte fred med det, fordi det også, på en måde, er smukt. Lad mig forklare: Mit indre følelsesliv er i vid udstrækning som en flad leverpostejsmad. Jeg er meget sjældent glad, for det meste har jeg det jævnt under middel, så når jeg endelig bliver rigtigt ked af det, får ukrudt i hovedet, tænker grimme tanker, er det en form for forløsning. Jeg føler mig i live, fordi jeg føler noget."	"NO QUESTION"	NA	.	-1	-1	20113	7856	7	7	7
P10	70	False	experiment	"Alt bliver forkert, men alt bliver smukt, derfra hvor jeg står. Måske fordi jeg føler, at jeg oplever alting for sidste gang. Da jeg præsenterede den tankegang for min kæreste, kiggede han uimponeret på mig og påpegede, at livet lidt er som at have en have, som man er tvunget til at passe og forholde sig til, fordi man af uransagelige årsager ikke kan vælge at bo i lejlighed. Hvis ikke man gør noget aktivt, så gror den til. Ukrudtet slår rødder, og blomsterne dør, og man vil jo ikke have, at blomsterne dør – blomsterne er her en metafor for glæde – for man vil vel være glad, det må være dét, der er målet."	"NO QUESTION"	NA	.	-1	-1	42219	7856	8	7	7
P10	71	False	experiment	"Jeg kiggede på ham og sagde desperat: 'Men man har jo brug for Triste', med reference til Disneys geniale film 'Inside Out', der i min fortolkning handler om, at det er okay at være ked af det, men som i min kærestes fortolkning handler om, at ingen kan eksistere uden Glæde. Så nu er jeg lidt forvirret. Jeg har i lang tid forsøgt at acceptere og elske Triste, fordi Glæde langt hen ad vejen er en by i Rusland for mig. Jeg ved ikke, hvordan man gør, og det gør det svært at stræbe efter. Og jeg har tænkt, at det var en vigtig kamp at være sådan lidt 'se mig, jeg græder', fordi jeg ikke synes, at der er plads til Triste i dagens Danmark, måske fordi jagten på Glæde er blevet som jagten på det næste Den Store Bagedyst."	"NO QUESTION"	NA	.	-1	-1	38508	7856	9	7	7
P10	72	False	experiment	"Men måske er det bare mig. Måske er det bare mig, der synes, at vi mangler et sprog for den sorg, det er, når nogen dør eller gerne vil dø, eller den sorg det er, når nogen mister deres ungdom eller hele liv til en forkert krop, eller den sorg det er, når alt bare er forkert hele tiden."	"NO QUESTION"	NA	.	-1	-1	15687	7856	10	7	7
P10	73	False	experiment	"Noget tyder dog på, at det ikke bare er mig. I hvert fald har hver femte i den arbejdsdygtige alder psykiske problemer, og det provokerer mig, at et på mange måder kollektivt problem, der ifølge OECD årligt koster Danmark 110 milliarder kroner, skal løses individuelt ved, at individet bare begynder at tage noget medicin eller at gå til psykolog, så individet kan komme tilbage på arbejde igen, så vi kan holde det samfund i gang, der jo godt kunne tænkes at være en del af problemet."	"NO QUESTION"	NA	.	-1	-1	22207	7856	11	7	7
P10	74	False	experiment	"Jeg tænker tit, at det er svært at være menneske, og at man måske – på samfundsplan – burde tale lidt mere om, at det er svært at være menneske, så det måske ville blive lidt mindre ensomt at være et svært menneske, men fordi jeg er en løsningsorienteret pleaser, og fordi jeg fik nok af andre folks gode råd, besluttede jeg mig i forbindelse med denne tale for at løse alle mine problemer individuelt, og én gang for alle, ved at google noget i retningen af: 'Hvordan fixer man alle sine problemer'. Jeg endte hos Psykiatrifonden, hvis formand påpegede, at det: 'handler om at finde værdi i det, man har'. "	"NO QUESTION"	NA	.	-1	-1	33403	7856	12	7	7
P10	75	False	experiment	"'Nå', tænkte jeg, 'var det bare det', tænkte jeg, før jeg lige bagefter tænkte, at det jo stemte meget godt overens med mit forsøg på at finde værdien i Triste, og så havde jeg det godt med mig selv, fordi jeg ligesom havde knækket koden, indtil jeg kom til at tænke på, at hvis man nu fx har mistet sine nøgler et sted på Nørrebrogade, så vil man nok hellere lede efter de nøgler end at finde værdi i, at man stadig har et æble nede i sin skoletaske, som man selvfølgelig sagtens kunne dele med én af sine nærmeste og så bare være sådan lidt 'fuck de dér nøgler, nu spiser vi to bare æble og hygger os'."	"NO QUESTION"	NA	.	-1	-1	41324	7856	13	7	7
P10	76	False	experiment	"Men et eller andet sted dybt dernede i selvhadet, der føler man, at man fortjener at kunne komme hjem igen. Måske føler man, at også man fortjener Glæde. At også man fortjener den sol, der skinner på én, at også man fortjener de fødder, man kysser om morgenen, at også man fortjener grillparties og vild natur. Men når nu man bare er en lille heksetrold, er det selvfølgelig lidt demotiverende at næste linje i Midsommervisen går: 'Dem vil vi fra livet med glædesblus holde', og her på sankthansaften kan man jo så tænke lidt over, om alting var lettere i gamle dage, hvor man simpelthen bare satte ild til lortet. Til samfundets ukrudt, heksene, de anderledes, dem, der ville være mere, end deres køn berettigede til, eller dem, der ikke var glade og normale nok. Puf, og så gik samfundets dårlige samvittighed op i røg."	"NO QUESTION"	NA	.	-1	-1	46734	7856	14	7	7
P10	77	False	experiment	"Guderne skal da vide, at jeg nogle gange har lyst til at gøre det samme med mig selv og mit ukrudt i hovedet, bare lige finde sådan en stor, fed ukrudtsbrænder, og så bare gå amokkacino ud over det hele. Men det finurlige er jo, at ukrudtet altid finder sin vej igen, ligesom blomsten også finder sin vej igen. For man skal pleje og passe de blomster, man har fået tildelt, men samtidig kan man jo bruge hele sit liv på at luge al ukrudt i den have, der er life, i forsøget på at få den fin og ligusteragtig, eller også kan man embrace, at der altid vil være lidt tilbage og så prøve på at insistere på det smukke i dét. At insistere på, at Triste og Glæde ikke er hinandens modsætninger, men hinandens forudsætninger. Det har jeg i hvert fald tænkt mig, næste gang jeg bliver deprimeret."	"NO QUESTION"	NA	.	-1	-1	45018	7856	15	7	7
P10	78	False	experiment	"Slutteligt vil jeg gerne sige, at det sgu trods alt er at foretrække at ligge i et hvidt rum på den lukkede og lytte til indledningen af Sweet Home Alabama, end det er at ligge på toppen af en stor stak kvas og vente på, at ilden tager fat. Bispebjerg er bedre end Bloksbjerg, det er dejligt at bo i et samfund, hvor man hjælper folk i stedet for at brænde dem, og selvom hver by har sin heks og hvert sogn sine trolde, som vi fra livet med glædesblus vil holde, så er jeg her altså endnu, og det er jeg oprigtigt taknemmelig for. Tak."	"Spørgsmål:\nNævner taleren at have været indlagt på Sankt Hans Hospital?"	2	2	6525	1	28939	7856	16	7	7
P10	79	False	experiment	"NY TALE BEGYNDER NU"	"NO QUESTION"	NA	.	-1	-1	1365	10365	-1	7	7
P10	80	False	experiment	"Kære smukke studenter, kære forældre og kære lærere\nSikke mange flotte hvide huer. Hvor er I et smukt syn. Det er kun tre år siden, I stod her i denne hvide bygning for første gang med folkeskolen i rygsækken og sommerfugle i maven, for nu startede et nyt kapitel. Der er sket meget på de tre år, og I tænker formentlig, at tiden er fløjet afsted. Nu står I her efter intens eksamenslæsning."	"NO QUESTION"	NA	.	-1	-1	17333	10365	0	7	7
P10	81	False	experiment	"Utroligt stolt, meget lettet og lidt træt. Sådan tænker jeg, at I har det lige nu. Stolt af at have gennemført. Lettet over at eksamensræset er overstået for denne gang. Og lidt træt på grund af den megen eksamenslæsning med alt for korte nætter og muligvis også lidt for meget fest de seneste dage."	"Spørgsmål:\nForestiller taleren sig at studenterne har festet de seneste dage?"	1	1	3483	1	15695	10365	1	7	7
P10	82	False	experiment	"Og I har god grund til at være stolte, for det er en vigtig milepæl i jeres liv, som I nu har rundet. Jeg husker, at jeg var lykkelig, da jeg blev student. Jeg havde en oplevelse af, at hele verden lå foran mig. Og ved I hvad? Hele verden ligger også foran jer. Grib livet. Det skal nok gå godt. For der er behov for jer."	"NO QUESTION"	NA	.	-1	-1	14317	10365	2	7	7
P10	83	False	experiment	"Vi ser i dag en politisk polarisering i bl.a. USA og Frankrig, og vi mærker den også herhjemme. Verden bliver fremstillet sort-hvid. Det bekymrer mig. For svaret på samfundets problemer er lige præcis ikke sort og hvidt. Det er nuancer og balancer. Og det ved I mere end nogen andre. Vær på vagt, når nogen serverer enkle løsninger på komplekse ting. For sådan fungerer verden ikke."	"NO QUESTION"	NA	.	-1	-1	18546	10365	3	7	7
P10	84	False	experiment	"Verden bliver ikke bedre af at fjerne jøder og kommunister, som Hitler ville. Verden bliver ikke bedre af at slå dem ihjel, som ikke har samme Gud som én selv, som Islamisk Stat vil det. Og verden bliver heller ikke et bedre sted af at forbyde Islam, som Rasmus Paludan vil det. Der er altid flere nuancer til det, øjet lige ser."	"NO QUESTION"	NA	.	-1	-1	17187	10365	4	7	7
P10	85	False	experiment	"Makrel, som var præsident for rockerbanden Bullshit tilbage i 80’erne – Bullshit var den rockerbande, der blev udraderet af Hells Angels – han skrev digte og syede tøj til sin kæreste. En ung mand, der ligesom mange andre af Bullshits medlemmer, var blevet svigtet som børn af de voksne omkring dem."	"NO QUESTION"	NA	.	-1	-1	20211	10365	5	7	7
P10	86	False	experiment	"Når man ser nærmere på en problematik, så viser der sig oftest flere facetter. Jeg vil på ingen måde forsvare rockerbander og den kriminalitet, de begår. Jeg siger blot, at der kan være flere sider af en sag. Og der kan være grunde til, at ting opstår. Det gør dem ikke nødvendigvis mere rigtige, men det er vigtigt at prøve at forstå."	"NO QUESTION"	NA	.	-1	-1	16253	10365	6	7	7
P10	87	False	experiment	"Vi har derfor behov for unge mennesker som jer: unge mennesker med helhedssyn, der kan se nuancerne. Helhedssyn rimer på dannelse, og netop dannelse er det, som I har fået med herfra. På gymnasiet har I fået masser af viden. Udover at have fået styr på sinus og cosinus, Marx og Oehlenschläger, så har I her fået udvidet jeres mentale horisont. I har lært at perspektivere, at være kritisk overfor kilderne, at læse det med småt. Det er gode kompetencer at have med i rygsækken – den rygsæk, I bærer med jer videre i livet og i jeres videre uddannelse og job."	"Spørgsmål:\nMener taleren at studenterne generelt har lært at se nuancer i en sag?"	1	1	3927	1	27972	10365	7	7	7
P10	88	False	experiment	"De udfordringer, som vi står overfor i dag – og som jeg ved, at også I er optaget af som fx klimaet – det kan virke stort og overvældende. Og det er fristende at spørge, hvad kan jeg egentlig gøre ved det?"	"NO QUESTION"	NA	.	-1	-1	8684	10365	8	7	7
P10	89	False	experiment	"Men I kan gøre noget. I kan – der, hvor I er, og der, hvor I færdes - byde ind med jeres viden, jeres nuancerede og balancerede synspunkt. Det skal vi alle gøre. Det er sådan, at vi får et demokrati til at leve. Det er sådan, at vi får virksomheder og arbejdspladser til at udvikle sig og leve."	"Spørgsmål:\nLover taleren at studenterne får et job?"	2	2	3444	1	15839	10365	9	7	7
P10	90	False	experiment	"Kulturel og politisk forandring sker ikke hen over natten. Det er altid to skridt frem og ét tilbage. Men det tog i 1955 kun én Rosa Parks, der ikke ville rejse sig for en hvid person i bussen i USA, til at skabe en kulturel forandring. Det tog en kun 15-årig svensk pige, Gretha Thunberg, at starte en hel bevægelse blandt unge, der kæmper for et bedre klima. Sidstnævnte har i øvrigt Aspergers og er nu nomineret til Nobels Fredspris."	"Spørgsmål:\nNævner taleren at Rosa Parks er nomineret til Nobels Fredspris?"	2	2	3489	1	24857	10365	10	7	7
P10	91	False	experiment	"Alt dette for at sige, at du kan godt få noget ud af at stå op for det, du tror på. I som generation kan særligt gøre en forskel. Og det skal I – det må I love mig. For de nye tendenser, de nye måder at gøre ting på, de kommer nemlig oftest fra de unge generationer. Og det er lige nu jer."	"NO QUESTION"	NA	.	-1	-1	19677	10365	11	7	7
P10	92	False	experiment	"Vi kan lige så godt se det i øjnene: Jeg og jeres forældre – vi har erfaring, og det er godt, og I skal naturligvis altid lytte til os, men lad os være ærlige, vi har ikke jeres friske syn på tingene og jeres kreativitet og energi. Brug den. Vi – samfundet – har behov for jer. Mere end nogensinde faktisk. Masser af virksomheder står på tæerne for at få fingre i jer. Og det kan jeg godt forstå, for I har meget at byde på."	"NO QUESTION"	NA	.	-1	-1	24678	10365	12	7	7
P10	93	False	experiment	"I er født midt i den digitale guldalder, I taler emoji og taler i forkortelser som LOL og ILU. I er de digitalt indfødte – ikke 'wannabes' som os andre. Med it-teknologien er der kommet mange muligheder til – med Skype, FaceTime, mails og Google står vi anderledes globalt i dag. Og de muligheder er I særligt gode til at gribe."	"NO QUESTION"	NA	.	-1	-1	14754	10365	13	7	7
P10	94	False	experiment	"I tænker ud af boksen og kommer med kreative løsninger. Jeg ser det hele tiden, når jeg er ude at besøge skoler og uddannelsesinstitutioner. I er gode til at tænke i løsninger. Det er så godt, bliv ved med det."	"NO QUESTION"	NA	.	-1	-1	6592	10365	14	7	7
P10	95	False	experiment	"Direktøren for Ernst og Young, Mark Weinberg, sagde på en konference sidste år om fremtidens arbejdsmarked: 'We hire for the mindset, not the skill set'. Og I har det rette mindset, og I er toptunet digitalt."	"NO QUESTION"	NA	.	-1	-1	10813	10365	15	7	7
P10	96	False	experiment	"Med IT-mulighederne kommer også nogle udfordringer. Vi har aldrig tidligere haft så mange unge med angst, lavt selvværd og stress. Det siger mere noget om vores samfund, end det siger noget om jer. Det kræver, at vi skal have sjælen med, når vi navigerer i det."	"NO QUESTION"	NA	.	-1	-1	12674	10365	16	7	7
P10	97	False	experiment	"Da jeg var ung – og da jeres forældre var unge – der levede vi et stille liv i forhold til jer. Vi levede et liv med først én og senere to tv-kanaler – ja det var vildt, da TV2 kom til. Vi havde ingen Facebook, ingen Instagram, ingen internet, ingen mobiler – bare en fastnettelefon. Når jeg tænker over det, så var det ufatteligt, at vi kunne leve..."	"NO QUESTION"	NA	.	-1	-1	14502	10365	17	7	7
P10	98	False	experiment	"Nå, men min pointe er, at vi var ikke på, og vi var ikke til rådighed, som I er. At være ung i dag er næsten som en daglig casting til livets realityshow. I skal være top-omstillingsparate for at kunne klare jer i studier, job og karriere – og udstillingsparate for at kunne klare jer på sociale medier. Det er hårdt."	"Spørgsmål:\nMener taleren at det ubetinget var sværere at være ung for forældregenerationen end for de unge i dag?"	2	2	4323	1	14497	10365	18	7	7
P10	99	False	experiment	"Med YouTube er du hele tiden tæt på verdensstjernerne, musikere som Rihana, youtubere som PewDiePie og influencere som Olivia Culpo. Du kommer hurtigt til at måle dig med dem. Man glemmer, at det kun er en lille promille af jordens befolkning, der kan synge så flot, være så dygtig eller være så smuk."	"NO QUESTION"	NA	.	-1	-1	17099	10365	19	7	7
P10	100	False	experiment	"De mange digitale platforme stiller krav om, at man er til stede – på den fede måde, vel at mærke. Derfor er der også flere end nogensinde, der lider af FOMO. Fear Of Missing Out."	"NO QUESTION"	NA	.	-1	-1	10388	10365	20	7	7
P10	101	False	experiment	"I skal vælge at være til stede de steder, der siger jer noget. Der, hvor I har interesse og får noget ud af det. I skal være dem, I er. Som I er. For I er gode nok. Fri os fra FOMO. Go SLOMO i stedet. Livet er ikke et racerløb. Jeg havde selv lidt travlt som ung. Det kan jeg se nu. Jeg gik målrettet efter en snor. Lidt pauser ville havde været sundt for mig."	"NO QUESTION"	NA	.	-1	-1	23218	10365	21	7	7
P10	102	False	experiment	"Det gode er, at I med stor sandsynlighed bliver 100 år, så I har endnu bedre tid, end jeg har til at stoppe op og reflektere... tid til at opleve. Jeg har sagt det før, og jeg siger det gerne igen: Livet handler heller ikke om at få de allerhøjeste karakterer. Det handler om at få karakter som menneske."	"NO QUESTION"	NA	.	-1	-1	14662	10365	22	7	7
P10	103	False	experiment	"Jeg håber, at I vil dyrke nysgerrigheden og leve livet – velvidende at man kan begå fejl. Vi skal ikke have en nul-fejlkultur. Så vil jeg meget hellere have en fejlkultur, for man lærer nemlig af sine fejl, hvis man altså reflekterer over sine valg, og det, man møder i livet."	"Spørgsmål:\nMener taleren at det er gavnligt med en nulfejlskultur?"	2	2	2934	1	17496	10365	23	7	7
P10	104	False	experiment	"Og det er mit budskab til jer. Gør jer altid umage – gør det bedste, I kan, for så kan I ikke gøre det bedre. Hvil i, at I er gode nok – faktisk helt perfekte – som I er. Vi har aldrig haft så veluddannet en generation som jeres. I er kreative og kaster jer ud i iværksætteri. Fordi I kan. Så venner: Rank ryggen og tro på jer selv."	"Spørgsmål:\nEr studenternes generation - ifølge taleren - den bedst uddannede, historisk set?"	1	1	3864	1	16532	10365	24	7	7
P10	105	False	experiment	"Stort tillykke med eksamen og jeres kørekort til fremtiden. Jeg ønsker jer en rigtig god tur."	"NO QUESTION"	NA	.	-1	-1	4253	10365	25	7	7
