Session_Name_	Trial_Index_	Trial_Recycled_	condition	text	question	expected_key	QUESTION_KEY_PRESSED	QUESTION_RT	QUESTION_ACCURACY	SENTENCE_RT	speechid	paragraphid	counterbalance	LAST_COUNTERBALANCE
P23	1	False	practice	"NY TALE BEGYNDER NU"	"NO QUESTION"	NA	.	-1	-1	3559	1327	-1	0	0
P23	2	False	practice	"Hej alle sammen!"	"NO QUESTION"	NA	.	-1	-1	1500	1327	0	0	0
P23	3	False	practice	"Som I allerede ved, vil vi om lidt tænde for et bål, der vil brænde et skab af – det skab, vi har følt os begrænset af, indelukket i, og som de fleste af os er brudt ud af for at kunne blive lykkeligere."	"NO QUESTION"	NA	.	-1	-1	15540	1327	1	0	0
P23	4	False	practice	"'Men skabe er da ganske praktiske til opbevaring af mangt og meget, ikke sandt?' Jo, opbevaring af værdier, det er rigtigt – men når vi først begynder at sætte spørgsmålstegn ved disse værdier, så føles skabet mere og mere trangt, for det kan ikke rumme vores ideer og følelser mere."	"NO QUESTION"	NA	.	-1	-1	15124	1327	2	0	0
P23	5	False	practice	"'Jamen hvad er der i det skab?' Der er en opfattelse af at kvinder og mænd skal tænke, føle, klæde sig og handle forskelligt – fordi nogle er kvinder og andre er mænd. Kønsroller kalder vi det. Men det rækker faktisk meget længere end bare til roller, vi spiller – rollerne invaderer vores tanker og vores følelser, så vi næsten ikke kan tænke uden for rollen, så længe skabet omslutter os, og i hvert fald først og fremmest føler vi må tage hensyn til dem, der er i skabet..."	"Spørgsmål:\nMener taleren at kønsroller både påvirker hvordan vi handler og tænker?"	1	1	6044	1	20026	1327	3	0	0
P23	6	False	practice	"Når vi endelig bryder ud af skabet og for alvor viser og siger det, der ikke passer i det normative skab, kan vi godt opleve negative reaktioner – men så sandelig også positive – for vi er jo slet ikke alene!"	"NO QUESTION"	NA	.	-1	-1	13811	1327	4	0	0
P23	7	False	practice	"Der er nemlig andre som ligner os mere eller mindre, vi er en broget og mangfoldig flok i alle aldre, hudfarver, kulturelle baggrunde, med og uden handicap, med og uden tro, af forskellig politisk overbevisning, og – vigtigst for os her: af flere forskellige kønsidentiteter og seksuelle orienteringer."	"NO QUESTION"	NA	.	-1	-1	15996	1327	5	0	0
P23	8	False	practice	"Fælles for os er, at vi er en regnbueminoritet i forhold til flertallets skab – men det betyder ikke at majoriteten har ret. Vi vil udefra informere om, at der er andre måder at se tingene på, tilbyde et alternativt syn på livet og verden, som kan hjælpe nogle – især børn og unge – ud af et skab, de mistrives i."	"Spørgsmål:\nMener taleren at minoriteter bør tie med deres verdenssyn?"	2	2	4484	1	15300	1327	6	0	0
P23	9	False	practice	"Lad os brænde skabet med normerne, så vi frigøres fra dem og får retten til at være dem, vi faktisk er!"	"NO QUESTION"	NA	.	-1	-1	5480	1327	7	0	0
P23	10	False	experiment	"NY TALE BEGYNDER NU"	"NO QUESTION"	NA	.	-1	-1	1434	1323	-1	8	8
P23	11	False	experiment	"Regn giver liv. Regn er rigtig godt for mange ting – men i små mængder. Det kan vi vist alle blive enige om efter en sommer med kloakvand i kældrene og oversvømmede marker så langt øjet rækker."	"NO QUESTION"	NA	.	-1	-1	9906	1323	0	8	8
P23	12	False	experiment	"Vi står lige nu over for en gigantisk udfordring med at tilpasse os fremtidens klima og håndtere de store regnmængder. Jeg tror, det er helt afgørende, at vi går til arbejdet med en åbenhed overfor nye ideer og nye partnerskaber. Ingen kommune, intet forsyningsselskab og ingen borger kan løse det her problem alene. Det har derfor været meget vigtigt for mig at kunne komme her i dag og starte dialogen med alle jer."	"NO QUESTION"	NA	.	-1	-1	18642	1323	1	8	8
P23	13	False	experiment	"Jeg kommer ikke med den helt store pose penge, som nogen af jer måske havde håbet på. Men jeg kommer heller ikke tomhændet: Jeg kommer med en ny regering, der strutter af energi og initiativlyst."	"NO QUESTION"	NA	.	-1	-1	7084	1323	2	8	8
P23	14	False	experiment	"Den tidligere regering har forsømt at handle på vores viden om klimaforandringer og deres konsekvenser. Den nye regering markerer et skift i tilgangen til at løse klimatilpasning – fra passiv vidensopsamling til at handle i fællesskab og dialog."	"NO QUESTION"	NA	.	-1	-1	10266	1323	3	8	8
P23	15	False	experiment	"Jeg kommer også med en klimatilpasningspakke, der skal styrke og opprioritere indsatsen for klimatilpasning. Pakken bliver en bred palet af initiativer, der med udgangspunkt i regeringsgrundlaget både dækker ny lovgivning, styrket rådgivning og løsningsorienteret dialog. For på trods af de økonomiske krisetider, løfter vi fanen højt for klimatilpasning. Opgaven skal løses. Og den skal løses i fællesskab."	"NO QUESTION"	NA	.	-1	-1	21869	1323	4	8	8
P23	16	False	experiment	"For at få mest muligt ud af de sparsomme midler, gælder det om at løse flere problemer på en gang. På verdensplan står vi med to kriser: den økonomiske krise og klima- og ressourcekrisen. De to kriser hænger sammen og skal også løses sammen. Danmark skal være et grønt demonstrationsland, hvor nye teknologier bliver udviklet og afprøvet, så de bliver efterspurgt globalt."	"NO QUESTION"	NA	.	-1	-1	16986	1323	5	8	8
P23	17	False	experiment	"På mere lokalt plan – det, som vi har fokus på i dag – skal vi også se tingene i sammenhæng. Vand og natur har oprindeligt befundet sig i fine kredsløb. Det har vi i takt med udviklingen af det civiliserede samfund rykket på. Jeg siger selvfølgelig ikke, at vi skal rulle udviklingen tilbage. Men vi har opbygget så utrolig meget viden og teknologi i vores moderne samfund, at vi må kunne bruge noget af det til at få synergieffekter ud af den nødvendige klimatilpasning."	"NO QUESTION"	NA	.	-1	-1	24396	1323	6	8	8
P23	18	False	experiment	"Kan vi for eksempel ikke på én gang fjerne vandet fra det sted, hvor det gør skade, og samtidig bruge det til gavn for naturen, dyrelivet eller til grønne områder i byerne – frem for at sende det ned under jorden i nogle meget dyre betonrør? Det vil vi i regeringen gerne medvirke til."	"NO QUESTION"	NA	.	-1	-1	23374	1323	7	8	8
P23	19	False	experiment	"Det er jer, der er helt tæt på problemerne i hverdagen og ved, hvor skoen trykker – eller skulle vi sige – hvor de utætte sprækker er. Hvis vi skal løfte de store udfordringer, der følger med de hyppigere skybrud, er det helt afgørende, at staten, kommuner, forsyninger, erhvervsliv, forskningsinstitutioner og interesseorganisationer har en tæt dialog. Derfor vil jeg skabe rammerne for en styrket dialog om klimatilpasning. Jeg vil i den kommende tid lancere forskellige initiativer, der inddrager interessenter på en ny måde. Jeg vil blandt andet nedsætte et nationalt dialogforum, der for første gang samler nøgleaktører og beslutningstagere på området."	"NO QUESTION"	NA	.	-1	-1	33092	1323	8	8	8
P23	20	False	experiment	"Når vi tager fat på dialogen om klimatilpasning, er det på mange måder en konkretisering og udfoldning af 'Kodeks for godt samarbejde', som Miljøministeriet og KL i fællesskab har udarbejdet. Jeg er glad for, at vi i fællesskab tager ansvar for dialog og samarbejde."	"Spørgsmål:\nHar Miljøministeriet alene udarbejdet 'Kodeks for godt samarbejde'?"	2	2	3293	1	12031	1323	9	8	8
P23	21	False	experiment	"Der er allerede mange fine eksempler i kommunerne på, hvordan man håndterer oversvømmelserne. Et af de eksempler, jeg har hørt om, er et tæt samarbejde mellem Ikast-Brande Kommunes planafdeling, miljøforvaltning og forsyning, som har forbundet regnvandsbassiner ad snoede kanaler og integreret det i en lokalplan – fuldstændig ligesom stisystemer, broer og legepladser. Løsningen er klimatilpasset og testet for konsekvenserne ved 'monsterregn'."	"Spørgsmål:\nEr nogle kommuner - på tidspunktet for talen - gået i gang med at håndtere oversvømmelser?"	1	1	5190	1	23546	1323	10	8	8
P23	22	False	experiment	"Et andet eksempel er fra Odense, hvor man gik mere radikalt til værks. Efter at vandselskabet havde overvejet flere forskellige traditionelle løsninger, forslog ejerne af de oversvømmelsestruede grunde, at vandselskabet købte deres grunde. Det forslag tog de imod. Husene blev revet ned, og der blev lavet to nye søer. Og så var løsningen faktisk billigere end de løsninger, vandselskabet havde undersøgt."	"NO QUESTION"	NA	.	-1	-1	53113	1323	11	8	8
P23	23	False	experiment	"De to løsninger tjener ikke som facitlister, men som gode eksempler på, hvordan man ved at lytte og samarbejde på nye måder kan finde gode løsninger, der fungerer lige netop der. For der er ingen tvivl om, at løsningerne skal findes lokalt. Derfor er det også helt afgørende, at I i kommunerne lever op til jeres ansvar. Og så lover jeg, at staten vil gøre sit bedste for at give jer gode rammevilkår."	"NO QUESTION"	NA	.	-1	-1	21689	1323	12	8	8
P23	24	False	experiment	"Helt overordnet skal vi have en national handlingsplan for klimatilpasning. Den nationale handlingsplan skal skabe overblik og sammenhæng mellem statens initiativer for klimatilpasning, og den skal fokusere på alle de positive synergieffekter, der kan være af klimatilpasning – både i forhold til vand, natur, biodiversitet, infrastruktur, byudvikling, byggeri og fødevareproduktion."	"NO QUESTION"	NA	.	-1	-1	18240	1323	13	8	8
P23	25	False	experiment	"Regeringen skal drøfte, hvordan den nationale handlingsplan bedst muligt kan tilvejebringes. Men der skal tænkes langsigtet og på tværs af sektorer. Handlingsplanen skal vedtages i regeringen. Et af elementerne kan være en klimatilpasningslov, der understøtter helhedsorienterede løsninger for regnvand og skybrud."	"NO QUESTION"	NA	.	-1	-1	13053	1323	14	8	8
P23	26	False	experiment	"Vi skal også se på finansieringsmulighederne: Både i forhold til den langsigtede tilpasning, hvor vi med en bred vifte af løsninger skal tilpasse os fremtidens klima for at bevare serviceniveauet. Det kan for eksempel være ved at bygge større rør, lave faskiner på private grunde, grønne tage osv. Og også i forhold til de akutte kraftige skybrud, som vi ikke bare kan bygge os ud af. Dem må vi forberede os på ved intelligent styring og opmagasinering, så vandet ledes hen, hvor det gør mindst skade, så længe uvejret står på."	"NO QUESTION"	NA	.	-1	-1	33057	1323	15	8	8
P23	27	False	experiment	"Den miljøteknologiske indsats inden for klimatilpasning er også afgørende. Det er vigtigt, at vi forstår at udnytte vores klimaindsats, så vores erhvervsliv kan generobre en international styrkeposition."	"NO QUESTION"	NA	.	-1	-1	9206	1323	16	8	8
P23	28	False	experiment	"Inden for kort tid nedsætter vi et stærkt hold af kompetente mennesker i en taskforce, der skal hjælpe med at få omsat gode ideer til konkrete handlinger og sørge for, at arbejdet skrider fremad."	"NO QUESTION"	NA	.	-1	-1	7178	1323	17	8	8
P23	29	False	experiment	"Med i taskforcen er også et rejsehold, som etableres i starten af 2012. Det bliver et team af eksperter, som kan rådgive kommuner og virksomheder lokalt. Miljøministeriet har rigtig gode erfaringer med rejsehold fra vindmølleområdet. Ifølge en undersøgelse fra 2010 svarede 93 procent af de kommunale medarbejdere, der blev interviewet, at de var tilfredse eller meget tilfredse med kontakten til vindmøllesekretariatet."	"Spørgsmål:\nKommer rejseholdet fra affaldshåndteringsområdet?"	2	2	5610	1	17215	1323	18	8	8
P23	30	False	experiment	"I løbet af 2012 begynder regeringen at rydde de første lovmæssige barrierer af vejen. Som I sikkert alle ved, vedtog Folketinget for et par år siden en helt ny lov for regulering af vand- og spildevandsforsyningerne – Vandsektorloven. Jeg ved godt, at I ikke ligefrem elsker den lov, men den rummer faktisk mange gode initiativer, hvis vi tilrettelægger det rigtigt."	"NO QUESTION"	NA	.	-1	-1	13465	1323	19	8	8
P23	31	False	experiment	"Som miljøordfører fulgte jeg med i forhandlingerne af præmisserne for loven, og der er ingen tvivl om, at det ikke var hensigten med loven, at den skulle bremse mulighederne for at investere i klimatilpasning eller gennemføre andre miljømæssige initiativer. Tværtimod var hensigten at høste det potentiale for effektivisering, som fandtes i sektoren, og at udnytte det til gavn for miljøet, til investeringer i sektorens infrastruktur – blandt andet kloakrenovering – eller til lavere priser for forbrugerne."	"NO QUESTION"	NA	.	-1	-1	21060	1323	20	8	8
P23	32	False	experiment	"Nu, hvor vi har set, hvordan loven virker i praksis, må vi konstatere, at der er brug for nogle meget skarpe regler omkring beslutning af miljø- og servicemål. Da loven blev forhandlet på plads, var alle enige om at evaluere loven efter tre år. Men jeg mener, at problemerne med miljø- og servicemål er så presserende, at vi bør starte arbejdet med de nødvendige lovændringer nu, En anden vigtig melding er, at regeringen vil sikre en hurtig implementering af direktivet. Det betyder, at risikoområder udpeges af staten her lige om lidt – inden 22. december 2011."	"NO QUESTION"	NA	.	-1	-1	26149	1323	21	8	8
P23	33	False	experiment	"Der er i det hele taget dukket nye behov op. For eksempel har både kommuner og forsyningsselskaber længe efterspurgt et regnvandsbidrag, som motiverer grundejerne til at sende regnvandet ned i jorden eller samle det sammen og for eksempel bruge det til havevanding senere – i stedet for at sende det hele direkte i kloakken. Det vil spare spildevandsforsyningen for at bruge penge på at udbygge kloaknettet."	"NO QUESTION"	NA	.	-1	-1	15421	1323	22	8	8
P23	34	False	experiment	"Der har også været et ønske om, at vi ser på snitfladerne mellem det takstfinansierede og det skattefinansierede område, så nye løsninger på konsekvenserne af skybrud kan finansieres over taksterne. For eksempel har Københavns Kommune spurgt til muligheden for at kunne takstfinansiere forhøjelse af kantsten og ændrede vejprofiler, der bortleder regnvandet, når der kommer et skybrud."	"NO QUESTION"	NA	.	-1	-1	18597	1323	23	8	8
P23	35	False	experiment	"Vi vil også se på planområdet, og der er allerede initiativer i støbeskeen. Jeg vil gå efter, at planloven skal ændres, så I i kommunerne får mulighed for at lægge vægt på klimamæssige hensyn i lokalplanlægningen. I dag kan I kun lokalplanlægge med en arkitektonisk eller funktionel begrundelse."	"Spørgsmål:\nKan kommunerne - på tidspunktet for talen - tage højde for klimamæssige hensyn i lokalplanerne?"	2	2	5523	1	18578	1323	24	8	8
P23	36	False	experiment	"Med alle de nye muligheder i hånden er det så op til jer lokalt at lave nogle gode, langsigtede planer for klimatilpasningen. Derfor vil jeg forpligte jer som kommuner til at lave klimatilpasningsplaner inden for de næste to år. Det er nu, I har muligheden for at udarbejde en gennemtænkt plan for de mange og langsigtede udfordringer og investeringer, der uundgåeligt vil komme de kommende år."	"NO QUESTION"	NA	.	-1	-1	22230	1323	25	8	8
P23	37	False	experiment	"Benyt chancen for at tænke synergieffekter ind fra starten og etabler et godt samarbejde på tværs af fagområder og kommunegrænser – og mellem kommune og forsyning. Det er nu, platformen brænder, og alle er parate til at handle anderledes og finde nye veje at gå."	"NO QUESTION"	NA	.	-1	-1	14230	1323	26	8	8
P23	38	False	experiment	"Fra statslig side skal vi selvfølgelig nok definere nærmere, hvad planen skal indeholde. Og rejseholdets fornemmeste opgave bliver at rådgive kommunerne om opgaven. Nu har jeg fortalt jer om en masse lovinitiativer, som vi planlægger at tage med i klimapakken."	"NO QUESTION"	NA	.	-1	-1	17702	1323	27	8	8
P23	39	False	experiment	"Der kan efterfølgende vise sig behov for yderligere initiativer. Vi vil selvfølgelig se på resultatet af dialog med interessenter, på rejseholdets opsamling og erfaringer og på den generelle udvikling af viden under taskforcen."	"Spørgsmål:\nEr rejseholdet en del af taskforcen?"	1	1	3810	1	10135	1323	28	8	8
P23	40	False	experiment	"Jeg håber, at jeg med mit oplæg har fået understreget, at regeringen vil noget med klimatilpasning. Det er slut med at fedtspille. Som sagt er nøgleordene for regeringens arbejde på dette felt: Fra viden til handling gennem dialog og samarbejde. Jeg er helt sikker på, at vi i den proces, vi nu sætter i gang, i samlet flok vil få en masse nye ideer, som ingen endnu har tænkt på."	"NO QUESTION"	NA	.	-1	-1	14643	1323	29	8	8
P23	41	False	experiment	"Aksel Larsen, som stiftede det parti, jeg selv kommer fra, sagde engang: 'Man skal ikke løfte fanen så højt, at benene ikke kan nå jorden.' Jeg sagde i starten, at vi løfter fanen højt. Men vi gør det ikke uden at bevare jordforbindelsen. Lad os komme i gang med arbejdet, så vi bliver fri for at skovle mere vand ud af kældrene i fremtiden. Jeg håber, I vil være med hele vejen."	"NO QUESTION"	NA	.	-1	-1	16821	1323	30	8	8
P23	42	False	experiment	"NY TALE BEGYNDER NU"	"NO QUESTION"	NA	.	-1	-1	2448	7797	-1	8	8
P23	43	False	experiment	"Det er bålet, der om lidt fanger vore øjne, selv om aftenen er lys. Vi samles om bålet, som vore forfædre har gjort i årtusinder, siden isen forsvandt fra vore breddegrader. De tændte bål for at varme sig. De tændte bål for at holde de vilde dyr væk. De tændte bål for at advare mod fjender. Bålet varmer. Det fortærer. Det udsletter sig selv. Det ligner os mennesker. Der brænder en ild i os. Vi brænder hver især for noget, og vi brænder ud til sidst. "	"NO QUESTION"	NA	.	-1	-1	22401	7797	0	8	8
P23	44	False	experiment	"Hvis vi ikke brænder for noget, så kan vi lige så godt lægge os til at dø. Det er ilden i os, der er vores bestemmelse og giver livet mening. Det er kærlighedens ild. Og hadets ild, desværre. I pinsesalmerne skriver Grundtvig om Helligånden som 'tunger af ild og dog prædiken mild' og om, at 'Tungen gløder, hos hedninger såvel som jøder'. Og i fædrelandssalmen skriver han om ilden som symbol på ånden – i dette tilfælde Helligånden, som er billedet på det åndelige, på det, der adskiller mennesker fra dødt ler. Han bruger ilden som symbol på det, vi i dag kalder sammenhængskraften i et land, som han kaldte 'Kærlighed til fædrelandet'."	"NO QUESTION"	NA	.	-1	-1	42116	7797	1	8	8
P23	45	False	experiment	"Derfor hvad end verden siger og hvad verdensmagten vil,\nStår og falder jordens riger dog med kærlighedens ild,\nHvor den blusser, bor livsgrøden,\nHvor den slukkes, hersker døden."	"NO QUESTION"	NA	.	-1	-1	11261	7797	2	8	8
P23	46	False	experiment	"Både mennesker og lande står og falder med den ild. Ilden er de store følelser. Det er alt det, der ikke forandrer sig over tiden. Det er den, vi finder hos de store dramatikere, selv om deres værker er oldgamle. Shakespeare, Dostojevski, Ibsen, Kaj Munk. De vigtigste ting i tilværelsen forandrer sig ikke. Vi, der er samlet om bålet, har alle de væsentlige ting fælles med dem, der stod og sad om bålet i tidligere tider. Bålet blev også brugt til at bekæmpe ondskaben."	"NO QUESTION"	1	.	-1	-1	24960	7797	3	8	8
P23	47	False	experiment	"Derfor brændte man hekse på bålet – især på den tid, da Christian den Fjerde levede - i 1600-tallet. Han klagede over, at der blev brændt for få hekse. Han ville fordrive det onde. Alene i en enkelt lille by i Norge blev der brændt et stort antal hekse. Chr. IV mente, det måtte være heksenes skyld, når der var misvækst, kolde somre og isvintre. De var skyld i, at han tabte alle sine krige – og blev svigtet af sin elskede (Kirstine Munk)."	"Spørgsmål:\nGav Christian IV - ifølge taleren - hekse skylden for kolde somre?"	1	1	5904	1	23810	7797	4	8	8
P23	48	False	experiment	"'Hver by har sin heks, og hvert sogn sine trolde.' Det har digteren Holger Drachmann ret i. Sådan er det fortsat. Men vi brænder dem ikke. For, som Suzanne Brøgger siger om sig selv: 'Tidligere brændte man heksene på bålet. Nu udgiver man deres bøger!' Det kan man da kalde en tilståelse! Men i stedet for bål har vi så fået medier. I mediernes flammehav fortæres både skyldige og uskyldige, hekse og godtfolk, der ikke passer på. I visse medier, og især i de sociale medier, kan løgne trives og spredes, fordi de ikke bliver imødegået."	"NO QUESTION"	NA	.	-1	-1	27326	7797	5	8	8
P23	49	False	experiment	"Det viser værdien af medier, der lever op til sandhedskrav. Det viser værdien af direkte personkontakt og autentiske oplevelser. Og det forklarer, hvorfor danskerne i stærkt stigende tal strømmer til festivaler, folkemøder, biblioteker, museer osv. De vil have autentiske oplevelser, møde det virkelige frem for mediernes tyggemad. "	"NO QUESTION"	NA	.	-1	-1	17261	7797	6	8	8
P23	50	False	experiment	"Ved I for resten, hvad forskellen er på Vorherre og en journalist? – Vorherre tror ikke, at han ikke er journalist! – Forstod I den! Nu sidder så Mette Frederiksen og forhandler og forhandler. Hun kommer til at sande, som USA's præsident Bill Clinton engang sagde: 'At være politisk leder er som at bestyre en kirkegård. Man har mange under sig, men ingen hører efter!'"	"NO QUESTION"	NA	.	-1	-1	18744	7797	7	8	8
P23	51	False	experiment	"Men lad os her ved bålet glæde os over vores herlige land og den herlige, uforudsigelige sommer. 'Snart kolde farver i sky og vand – snart nøgne piger ved hver en strand.' 'Og stundom ud af din fulde glød / sprang lyn fra skyen i jordens skød.' 'Byger, som går og kommer. Det er den danske sommer.' Jeg stod engang ved et sankthansbål ved Øresund og snakkede med en svensker. Da vi havde sunget 'Danmark nu blunder den lyse nat', som er blevet kåret til Danmarks bedste sang, udbrød han pludselig til min overraskelse: 'Den er jo nationalistisk!' Og sandt nok, den nævner Danmark i hvert andet vers."	"NO QUESTION"	NA	.	-1	-1	36745	7797	8	8	8
P23	52	False	experiment	"Men hvad er der galt i det? Må man heller ikke elske sine forældre, søskende og kærester? Hvad har han mon tænkt sidste lørdag, da Dannebrog fyldte 800 år, og landet flød over med rød-hvide flag og uendelige kærlighedserklæringer? "	"NO QUESTION"	NA	.	-1	-1	11178	7797	9	8	8
P23	53	False	experiment	"– Vi kan jo ikke gøre for, at det danske flag er det smukkeste i verden! Det er jo så gammelt, at vi fik lov at vælge først, før de øvrige mere spraglede nordiske korsflag. Kærligheden til flaget og fædrelandet er jo ikke vendt mod nogle andre. Det er et korsflag. Korset står for tilgivelse og åbenhed over for andre."	"NO QUESTION"	NA	.	-1	-1	16205	7797	10	8	8
P23	54	False	experiment	"Vi har lov at være glade for vores land, når blot det ikke går ud over andre. Vi skal huske dem, der ofrede sig, for at vi kan være frie, og dem, der sled og slæbte, for at vi kunne komme så vidt, som vi er. Vi overlevede nederlagene til Sverige i 1600-tallet, til England i Napoleonskrigene, hvor vi mistede Norge, og til Preussen i 1864. Vi overlevede den kolde krig med Sovjet. Vi så Berlinmuren falde. Polen rev sig fri, og de baltiske lande genopstod. Vi vil også overleve, at England nu vender os og Europa ryggen. Og vi vil overleve, at USA måske engang ikke mere er garanten for vores sikkerhed. Men Putins aggression i Ukraine får det til at løbe koldt ned ad ryggen. "	"NO QUESTION"	NA	.	-1	-1	32116	7797	11	8	8
P23	55	False	experiment	"Nu må vi gentænke hele forsvarspolitikken, ikke mindst med tanke på Arktis, der ikke må være et tomrum, der frister Putin. Her er det oplagt med et nordisk samarbejde, som vi burde udvikle langt stærkere. Sammen er vi store. Vi har verdens største handelsflåde tilsammen, og vores samlede nationalprodukt kan måle sig med Ruslands. Lad os lægge småstatsmentaliteten bag os. Efter Sovjetunionens og Berlinmurens fald har vi meldt os ind i verden. Danske fly opererer uden for landets grænser. Med massiv opbakning i befolkningen. Vi er aktivistiske, med alt hvad det indebærer. For når man melder sig ind i verden, kan man også komme til skade."	"NO QUESTION"	NA	.	-1	-1	33333	7797	12	8	8
P23	56	False	experiment	"Jeg forstår godt, nogen spørger: Skulle vi ikke bare lade hele Mellemøsten sejle i egen sø? – De, der kritiserede indsatsen i Irak, de har jo så fået deres vilje, når det gælder Syrien, hvor vi har forholdt os passive. Og det gik jo endnu værre! Da vi greb ind, gik det galt. Og da vi ikke greb ind, gik det også galt! Mon ikke regeringsforhandlingerne også handler om forsvaret – det amerikanske krav om, at vi skal bruge to procent på forsvaret. Jeg husker en tidligere forhandling med De Radikale, hvor den radikale ordfører slog i bordet: 'I får ikke nye raketter, før I har brugt de gamle!' Vi ved ikke, hvad det næste bliver."	"NO QUESTION"	NA	.	-1	-1	39452	7797	13	8	8
P23	57	False	experiment	"Om endnu en terroraktion vil lykkes. Om det går galt et eller andet sted. Det vigtigste er, at vi ikke dør af skræk og tryghedsnarkomani. Vi kan ikke eliminere enhver risiko. 'Det, vi især skal frygte, er frygten selv', sagde den amerikanske præsident Roosevelt. Det tænker jeg dagligt på, når Rigsdagsgården på Christiansborg lukker for trafik, og når man skal tage sin livrem af i lufthavnens sikkerhedskontrol. Er det ikke lige netop den frygt, terrorister gerne vil skabe? Vi må for alt i verden ikke gå i panik over klimaudfordringen. 'I want you to panic', siger 16-årige Greta Thunberg. Men det er et dårligt råd."	"Spørgsmål:\nCiterer taleren Harry S. Truman for at sige: 'Det, vi især skal frygte, er frygten selv'?"	2	2	6167	1	34036	7797	14	8	8
P23	58	False	experiment	"Lad os i stedet tage udfordringen som en kærkommen anledning til at forske og udvikle os til nye energikilder og nye måder at lagre og spare energi. Danmark har de allerbedste forudsætninger for at gå foran og tilmed tjene penge på det. Lad os ikke blive tryghedsnarkomaner. Vore muligheder er fantastiske, fordi vi har en tillidskultur med utallige ildsjæle i foreningsdanmark, frivilligdanmark og højskoledanmark. Ildsjælene, det er dem, vi skal tænke på, når bålet nu tændes og blusser op og til sidst brænder ned. Og til alle ildsjælene vil jeg sige, som min gamle forstander på Askov Højskole, når han gik hjem og havde fået lidt inden for vesten: 'Herren velsigne og forbavse jer!'"	"NO QUESTION"	NA	.	-1	-1	30459	7797	15	8	8
