Session_Name_	Trial_Index_	Trial_Recycled_	condition	text	question	expected_key	QUESTION_KEY_PRESSED	QUESTION_RT	QUESTION_ACCURACY	SENTENCE_RT	speechid	paragraphid	counterbalance	LAST_COUNTERBALANCE
Test	1	False	practice	"NY TALE BEGYNDER NU"	"NO QUESTION"	NA	.	-1	-1	621	1327	-1	0	0
Test	2	False	practice	"Hej alle sammen!"	"NO QUESTION"	NA	.	-1	-1	874	1327	0	0	0
Test	3	False	practice	"Som I allerede ved, vil vi om lidt tænde for et bål, der vil brænde et skab af – det skab, vi har følt os begrænset af, indelukket i, og som de fleste af os er brudt ud af for at kunne blive lykkeligere."	"NO QUESTION"	NA	.	-1	-1	687	1327	1	0	0
Test	4	False	practice	"'Men skabe er da ganske praktiske til opbevaring af mangt og meget, ikke sandt?' Jo, opbevaring af værdier, det er rigtigt – men når vi først begynder at sætte spørgsmålstegn ved disse værdier, så føles skabet mere og mere trangt, for det kan ikke rumme vores ideer og følelser mere."	"NO QUESTION"	NA	.	-1	-1	221	1327	2	0	0
Test	5	False	practice	"'Jamen hvad er der i det skab?' Der er en opfattelse af at kvinder og mænd skal tænke, føle, klæde sig og handle forskelligt – fordi nogle er kvinder og andre er mænd. Kønsroller kalder vi det. Men det rækker faktisk meget længere end bare til roller, vi spiller – rollerne invaderer vores tanker og vores følelser, så vi næsten ikke kan tænke uden for rollen, så længe skabet omslutter os, og i hvert fald først og fremmest føler vi må tage hensyn til dem, der er i skabet..."	"Spørgsmål:\nMener taleren at kønsroller både påvirker hvordan vi handler og tænker?"	1	1	1301	1	153	1327	3	0	0
Test	6	False	practice	"Når vi endelig bryder ud af skabet og for alvor viser og siger det, der ikke passer i det normative skab, kan vi godt opleve negative reaktioner – men så sandelig også positive – for vi er jo slet ikke alene!"	"NO QUESTION"	NA	.	-1	-1	1667	1327	4	0	0
Test	7	False	practice	"Der er nemlig andre som ligner os mere eller mindre, vi er en broget og mangfoldig flok i alle aldre, hudfarver, kulturelle baggrunde, med og uden handicap, med og uden tro, af forskellig politisk overbevisning, og – vigtigst for os her: af flere forskellige kønsidentiteter og seksuelle orienteringer."	"NO QUESTION"	NA	.	-1	-1	266	1327	5	0	0
Test	8	False	practice	"Fælles for os er, at vi er en regnbueminoritet i forhold til flertallets skab – men det betyder ikke at majoriteten har ret. Vi vil udefra informere om, at der er andre måder at se tingene på, tilbyde et alternativt syn på livet og verden, som kan hjælpe nogle – især børn og unge – ud af et skab, de mistrives i."	"Spørgsmål:\nMener taleren at minoriteter bør tie med deres verdenssyn?"	2	1	235	0	7770	1327	6	0	0
Test	9	False	practice	"Lad os brænde skabet med normerne, så vi frigøres fra dem og får retten til at være dem, vi faktisk er!"	"NO QUESTION"	NA	.	-1	-1	715	1327	7	0	0
Test	10	False	experiment	"NY TALE BEGYNDER NU"	"NO QUESTION"	NA	.	-1	-1	798	18561	-1	5	5
Test	11	False	experiment	"Kære alle sammen\nJeg tror, alle har en historie om en lærer, der på en eller anden måde har gjort en forskel for os. En lærer, der så vores talent, støttede os i en svær tid eller gjorde os nysgerrige efter at lære mere."	"NO QUESTION"	NA	.	-1	-1	935	18561	0	5	5
Test	12	False	experiment	"Flemming, min klasselærer, var sådan en lærer. Vi havde ham i dansk igennem 7 år. Han var et trygt og sikkert anker for os. Han var god til at formidle, og så var han til stede i klasseværelset og gjorde det hyggeligt og sjovt at lære."	"NO QUESTION"	NA	.	-1	-1	42	18561	1	5	5
Test	13	False	experiment	"Alle børn fortjener en superlærer som Flemming. Den slags lærere er vigtige for sammenhængskraften i vores samfund. Det er dem, der har vores børn i hænderne i 10 år i træk. Det er dem, der skal give vores børn et solidt fundament af faglighed. Og det er dem, der skal udvikle vores børn til at blive kloge, selvstændige og kritiske unge.\nLige om lidt er det jeres tur som lærerstuderende. Og jeg er glad for, at I har taget initiativ til konferencen her, så vi kan få talt om, hvordan vi i fælleskab former fremtidens læreruddannelse."	"NO QUESTION"	NA	.	-1	-1	434	18561	2	5	5
Test	14	False	experiment	"Som I måske ved, har jeg været rundt i landet for at få læreruddannelsen mere ind under huden. For min holdning er, at jeg gerne vil se – med egne øjne – hvordan det står til, inden jeg konkluderer, hvad vi eventuelt skal forandre. Mit indtryk er, at rigtig mange af jer gerne vil ud og være superlærere. I brænder for at undervise alle slags børn. I er ikke bare optaget af fagfagligheden, men også af at inspirere vores børn gennem god formidling."	"NO QUESTION"	NA	.	-1	-1	1370	18561	3	5	5
Test	15	False	experiment	"Og når jeg spørger, hvad der kan være anderledes, så hører jeg egentlig mere end noget andet; at I gerne vil have mere. Mere undervisning, mere praktik, mere læring. Det er en stor gave, at vi har en studentergruppe, der er så engageret. Så er det vores opgave som politikere at sørge for at imødekomme jer på jeres ønsker så godt, vi kan."	"Spørgsmål:\nØnsker de lærerstuderende - ifølge taleren - mere undervisning?"	1	1	6987	1	66	18561	4	5	5
Test	16	False	experiment	"Der er særligt én ting, som jeg har lagt mærke til, når jeg har været rundt på de forskellige uddannelser. Ligegyldigt hvor jeg kommer – om det er i Hjørring, Vordingborg eller København – så oplever jeg, at der er et ønske om at få læreruddannelsen tættere knyttet til praksis. Mange lærerstuderene er bekymrede for at komme ud i deres første job. Om de er klædt godt nok på. Det kan jeg godt forstå. Det er en kompleks opgave at være lærer i dag."	"NO QUESTION"	NA	.	-1	-1	616	18561	5	5	5
Test	17	False	experiment	"Jeg var selv i praktik med Knud, der var i praktik som kemilærer. Så bliver det næsten ikke mere 'meta' end det. Det var sidste mandag, at jeg var i praktik på Søndervangsskolen. Her lærte jeg om svovlsyre i 7A. Men jeg blev også klogere på praktikken."	"NO QUESTION"	NA	.	-1	-1	79	18561	6	5	5
Test	18	False	experiment	"Det var tydeligt, at Knud – som mange andre studerende – så netop praktikken som højdepunktet på uddannelsen. For ham blev uddannelsen først rigtig spændende, da han mødte virkeligheden på Søndervangsskolen og fik sat liv på alle teorierne. Og fik prøvet sig selv af."	"NO QUESTION"	NA	.	-1	-1	923	18561	7	5	5
Test	19	False	experiment	"Alle steder hører jeg, at de studerende ønsker mere praktik, mere sammenhængende praktik og en bedre overgang fra auditorie til klasseværelse. Den sammenhæng mellem virkeligheden og det, de studerende lærer på uddannelsen, vil jeg gerne være med til at styrke."	"NO QUESTION"	NA	.	-1	-1	1023	18561	8	5	5
Test	20	False	experiment	"Derfor bliver jeg glad, når jeg hører, at kommunerne kalder sig 'meduddannere'. For det er afgørende, at også kommunerne spiller med. Jeg kan ikke bare lovgive om, at jeres uddannelse skal være bedre knyttet til praksis og så læne mig tilbage. Vi har brug for at tænke det hele sammen og gøre det i fællesskab."	"NO QUESTION"	NA	.	-1	-1	86	18561	9	5	5
Test	21	False	experiment	"Jeg vil gerne insistere på at balancere den her diskussion. For jeg synes, der er en tendens til, at vi politikere gerne vil signalere viljekraft og slagkraft og sige: Yes, her er noget, der ikke fungerer. Vi laver en ny reform!"	"NO QUESTION"	NA	.	-1	-1	424	18561	10	5	5
Test	22	False	experiment	"Det er måske derfor, jeres uddannelse har været igennem reform efter reform efter reform i de sidste 20 år. Jeg tror, vi kan gøre det klogere. Jeg tror, vi kan vælge at bruge de rammer, der blev lagt for læreruddannelsen i 2013 bedre. Og så se på – hen ad vejen – hvad der eventuelt kræver en lovændring, hvad der kræver økonomi, og hvad der kræver bedre kobling til det kommunale."	"NO QUESTION"	NA	.	-1	-1	609	18561	11	5	5
Test	23	False	experiment	"Det andet, jeg gerne vil være med til at styrke og tager meget alvorligt, det er de studerendes trivsel. Vi har alt for mange studerende, der er stressede. Ikke bare op til eksamen. Men også på en helt almindelig hverdag. Der gør mig bekymret. For det kan gå hen og blokere for, at I kan blive superlærere."	"NO QUESTION"	NA	.	-1	-1	6624	18561	12	5	5
Test	24	False	experiment	"Jeg er særligt bekymret for jer på lærerstudiet, fordi I oplever den her stress og mistrivsel dobbelt. På den ene side er I selv en del af en stresset ungdomsgeneration, og på den anden side skal I være klædt på til at rumme, at vores børnegruppe i folkeskolen også er det."	"NO QUESTION"	NA	.	-1	-1	3563	18561	13	5	5
Test	25	False	experiment	"Når jeg er ude og besøge gymnasier og spørger eleverne dér, hvad de laver i deres fritid, så siger de: 'Fritid? Vi laver afleveringer.' De føler ikke, at der er tid til at indgå i fælleskaber. Det at lave sine afleveringer, gøre sig umage og være flittig, fylder det hele. Men hvad så med det fælleskab, der var, da man var spejderleder? Eller fodboldtræner? Eller aktiv i en ungdomsforening? Hvad så med den værdi, det giver at være noget for nogen? Hvad sker der med den, hvis det hele går op i at præstere og få gode karakterer?"	"NO QUESTION"	NA	.	-1	-1	873	18561	14	5	5
Test	26	False	experiment	"Fælleskaber er vigtige. For vi skal kunne hente vores værdier flere steder fra. Og hvis vi har gode fælleskaber, har vi også nemmere ved at sige: Det blev så ikke til et 12-tal den her gang. Men de børn, jeg er svømmelærer for, dem får jeg smilet frem i."	"NO QUESTION"	NA	.	-1	-1	206	18561	15	5	5
Test	27	False	experiment	"En ting er sikkert: Vi har brug for, at I trives som lærerstuderende. Så I har overskud til at lære og være nysgerrige og blive klogere. For det er også det lys, de skal ud og tænde i elevernes øjne. Nysgerrighedens lys."	"NO QUESTION"	NA	.	-1	-1	302	18561	16	5	5
Test	28	False	experiment	"Jeg synes, I lærerstuderende er heldige. I kan se frem til – om ikke det fedeste – så det næstfedeste job i verden: jobbet som lærer. Derfor vil jeg gerne sige tak til de lærerstuderende for at tage initiativ til konferencen i dag. I skal vide: Jeres uddannelse er vigtig for mig. Jeres uddannelse er vigtig for regeringen. Jeg er sikker på, at fremtidens fantastiske læreruddannelse, er noget, vi kan skabe i fælleskab."	"NO QUESTION"	NA	.	-1	-1	217	18561	17	5	5
Test	29	False	experiment	"Tak for ordet."	"NO QUESTION"	NA	.	-1	-1	234	18561	18	5	5
Test	30	False	experiment	"NY TALE BEGYNDER NU"	"NO QUESTION"	NA	.	-1	-1	534	7905	-1	5	5
Test	31	False	experiment	"I slutningen af juli 1852 spadserede en ung kvinde på stierne her ved Rønnebæksholm. Hun øvede sig på at holde tale. Det var snart to år siden, at den danske hær slog slesvig-holstenerne i danmarkshistoriens største slag ved Isted. Nu skulle de faldne mindes, og sejren fejres med en folkefest på kampdagen den 25. juli. Festkomiteen havde sikret sig flere af tidens berømtheder som hovedtalere, blandt andre et par af Grundlovens fædre: Digterpræsten Niels Frederik Severin Grundtvig og Carl Ploug, digter og redaktør af avisen Fædrelandet samt Peter Rørdam, en populær bondepræst i Mern."	"NO QUESTION"	NA	.	-1	-1	894	7905	0	5	5
Test	32	False	experiment	"Da festdagen nærmede sig, rygtedes det, at Mathilde Fibiger også ville tale ved mødet. Det var en sensation! Aldrig før havde en kvinde talt ved et offentligt møde. Og så netop denne kvinde – bare 21 år, berømt og berygtet for at have skrevet romanen Clara Raphaels breve. Mathilde Fibiger var den første i Danmark, som i romanform agiterede for 'damernes emancipation', som hun kaldte det. Hun skrev i en tid, der var gennemsyret af det akademiske borgerskabs og bondestandens oprør mod enevælden, den glødende nationalisme i treårskrigen (1848-51) og Grundlovens indførelse af borgerlige frihedsrettigheder."	"Spørgsmål:\nVar Mathilde Fibiger forfatter som 21-årig?"	1	1	626	1	6315	7905	1	5	5
Test	33	False	experiment	"Den unge forfatterinde berusede sig i liberalismens idé om det enkelte menneskets ret til at søge sin lykke gennem at udvikle sin personlighed og intellekt. Tankens frihed måtte også gælde kvinder, mente hun. Den idé kom til at koste hende dyrt."	"NO QUESTION"	NA	.	-1	-1	267	7905	2	5	5
Test	34	False	experiment	"Mathilde Fibigers roman er bygget op som hovedpersonens 12 breve til en veninde. Romanens hovedperson, Clara, ligner sin forfatter til forveksling. Hun er privatlærerinde i provinsen og her bringer hun utålmodigt politik og litteratur på banen ved middagsbordet og ved sammenkomster i omgangskredsen. Men Clara finder ingen genklang – kun løftede øjenbryn og hovedrysten over sine interesser og snaksalighed."	"NO QUESTION"	NA	.	-1	-1	686	7905	3	5	5
Test	35	False	experiment	"I et let og livligt sprog lader Mathilde Fibiger Clara udfolde sine skarpe iagttagelser af, hvordan moral og konventioner holder kvinder indespærret i et åndeligt fattigdomsfængel, og fra brev nr. 3 runger et ulykkeligt skrig gennem historien: 'For første gang i mit liv føler jeg sorg over at jeg ingen mand er. Hvor fattigt og indholdsløst er ikke vort Liv imod deres? Er det med rette at de halve Mennesker er udelukkede fra al åndelig beskæftigelse? Eller har virkelig Vorherre skabt os af ringere Stof end mændene?'"	"NO QUESTION"	NA	.	-1	-1	247	7905	4	5	5
Test	36	False	experiment	"Mathilde Fibiger krævede hverken stemmeret, ret til uddannelse eller arbejde. For hende var kernen i 'damernes emancipation' kvindens ret til at udvikle sin ånd og sit intellekt på lige fod med mænd. Eller snarere er det kvindens pligt – hun skriver i Clara Raphael, at 'Gud i hvert menneske har villet udtrykke en guddommelig idé og en særskilt i hver.'"	"NO QUESTION"	NA	.	-1	-1	1789	7905	5	5	5
Test	37	False	experiment	"Nutildags lyder det ikke af meget, men det var uhyre radikalt tænkt i en tidsalder, hvor idealkvinden var hustru, mor og sin mand underdanig; hvor kvindens livsopgave var at pleje sin mand som en potteplante, så han kunne udfolde sine potentialer bedst muligt, og dertil at opdrage sine drenge- og pigebørn til at betragte dette forhold mellem kønnene som naturligt. Derfor var bogens slutning så provokerende: Mathilde Fibiger lader Clara forelsker sig i en ung, smuk og klog baron. "	"NO QUESTION"	NA	.	-1	-1	7632	7905	6	5	5
Test	38	False	experiment	"De hede følelser er ved at føre hende bort fra sit religiøse livsprojekt, nemlig at udvikle det frø af ånd og intellekt, Gud har sået i hende – det ved Clara jo er umuligt for gifte kvinder – og for at få det hele til at gå op, lader Mathilde Fibiger de to elskende forenes i et broder-søsterligt ægteskab."	"NO QUESTION"	NA	.	-1	-1	715	7905	7	5	5
Test	39	False	experiment	"Romanen vakte almindeligt ramaskrig og en længere litterær fejde. Flertallet af anmeldere var rent ud forargede både over emancipationskravet og cølibatægteskabet – begge dele var i modstrid med både Guds vilje og naturens orden."	"NO QUESTION"	NA	.	-1	-1	520	7905	8	5	5
Test	40	False	experiment	"Mathildes familie blev opbragt over, at hun havde udgivet en roman uden deres vidende, så hun blev hentet hjem fra sit lærerindejob på Lolland, og anbragt hos en farbror. Her mødte hun Grundtvig, som havde anmeldt romanen rosende, og Grundtvigs hustru, Marie Toft, som ejede Rønnebæksholm – en arv fra hendes første mand. Marie Toft var en klog og viljestærk kvinde – og havde som andre enker personlig myndighed og råderet over sin formue."	"NO QUESTION"	NA	.	-1	-1	19	7905	9	5	5
Test	41	False	experiment	"Hun drev godset eksemplarisk, og var landbrugspolitisk fremsynet, tilbød eksempelvis tidligt godsets fæstebønder deres gårde til arvefæste, og senere til selveje. Da den offentlige blæst om romanen havde lagt sig, tillod Mathilde Fibigers storebror Axel, der var hendes værge, hende at bo hos ægteparret på Rønnebæksholm i nogle måneder. "	"NO QUESTION"	NA	.	-1	-1	226	7905	10	5	5
Test	42	False	experiment	"Og det var her, at Grundtvig opfordrede Mathilde til at kaste sig ud i vovestykket med den offentlige tale ved mindefesten i Næstved, og derfor travede hun nu af sted og forberedte sig på begivenheden ved at tale højt for sig selv, skovens fugle og markens dyr."	"NO QUESTION"	NA	.	-1	-1	231	7905	11	5	5
Test	43	False	experiment	"Snart løb rygtet, og det nåede Mathildes familie. Hendes søskende tog affære som om, der var en naturkatastrofe under opsejling; de anså rent ud Mathilde for at være utilregnelig. En bror skrev til festkomiteens formand, og nedlagde på familiens vegne forbud mod talen, Axel og storesøster Ilja skrev til henholdsvis Grundtvig og Marie og bad dem hindre Mathilde Fibiger at forlade Rønnebæksholm. Men det ønske kom de ikke langt med. I sit svar understregede Marie Toft, 'at hverken Grundtvig eller jeg anser os for berettigede til at lukke Deres søster inde.'"	"NO QUESTION"	NA	.	-1	-1	492	7905	12	5	5
Test	44	False	experiment	"På trods af støtten fra sine indflydelsesrige værtsfolk fik Mathilde Fibiger aldrig lov til at holde sin tale for andre end markens dyr og fugle. I samme øjeblik hun besteg festens talerstol, gik et stort mandfolk, godsejeren fra Flensborggården, hurtigt bag om ryggen på hende, og med et rask tag om hendes smalle liv løftede han hende ned på jorden. Dér stod hun så til spot for festens deltagere. Om nogen – for eksempel Grundtvig – gjorde indsigelser mod denne håndfaste behandling af en ung kvinde med høje frihedsidealer, melder historien intet om."	"Spørgsmål:\nHoldt Mathilde Fibiger sin tale fra talestolen?"	2	1	734	0	396	7905	13	5	5
Test	45	False	experiment	"Mathilde Fibiger er en af danmarkshistoriens heltinder. I en tid, hvor både gifte og ugifte kvinder var personligt og økonomisk umyndige, insisterede på at klare sig selv økonomisk, og selv bestemme, hvor hun boede, og hvilket arbejde hun tog. Hendes storebror og værge insisterede på, at det bestemte han. Til sidst så Mathilde ingen anden udvej end at true ham med de magtesløses våben: 'Fra den tid af, da du kan have dette brev, begynder jeg at sulte mig; hvis jeg ikke skal sulte ihjel, må jeg snarest muligt have dit klart og tydeligt affattede skriftlige samtykke til min plan. Du kan ikke gøre regning på at få Grundtvigs til at hindre det. De ville ikke anvende, og de tåler heller ikke, at nogen vil øve vold imod mig, så længe jeg er hos dem.' "	"NO QUESTION"	NA	.	-1	-1	311	7905	14	5	5
Test	46	False	experiment	"'Nu skal vi se, om ikke den stærkeste bliver mig, skønt jeg er svagest; thi jeg kæmper for min frihed, der er mig kærere end livet!'"	"NO QUESTION"	NA	.	-1	-1	310	7905	15	5	5
Test	47	False	experiment	"Så fik Mathilde Fibiger sin vilje. Ung, umyndig, men egensindig, modig og viljefast klarede hun sig selv, i de første år på sultegrænsen som skjortesyerske. Senere hjalp indflydelsesrige mænd hende til en uddannelse som Danmarks første, kvindelige telegrafist og ansættelse som første, kvindelige statstjenestemand. Og bemærk, hvor mange mænd, der hjalp hende. Kampen for ligestilling mellem kønnene har nemlig altid stået mellem demokratiske kvinder og mænd mod udemokratiske kvinder og mænd."	"NO QUESTION"	NA	.	-1	-1	397	7905	16	5	5
Test	48	False	experiment	"Balladen om Mathilde Fibigers festtale og hendes vanskeligheder med at få lov til at leve et selvstændigt liv, viser i hvor lille grad Grundlovens frihedsrettigheder til at tale og tænke og tro og leve som man vil omfattede kvinder."	"NO QUESTION"	NA	.	-1	-1	270	7905	17	5	5
Test	49	False	experiment	"Men det gik trinvist fremad, og i 1925 var der stort set opnået formel ligestilling i politik, i retten til uddannelse og i ægteskabet, hvor gifte kvinder i 1922 langt om længe fik forældreret til de børn, de fødte i ægteskabet, på lige fod med faren."	"NO QUESTION"	NA	.	-1	-1	520	7905	18	5	5
Test	50	False	experiment	"Men oldnordiske tankemønstre blev ved at præge mentaliteten, og det mærkede jeg selv som barn og ung. I slutningen af juli 1969, altså for snart 50 år siden, rejste amerikanerne ud i rummet for at plante Stars and Stripes på månen. Neil Armstrong satte foden på det ukendte land med ordene: 'et lille skridt for mig, men et gigantisk spring for menneskeheden'. Jeg var 12, så det på sort-hvidt fjernsyn som et eventyr helt i forlængelse af mine yndlingsbøger: Ivanhoe, De Tre Musketerer og En Verdensomsejling Under Havet. "	"NO QUESTION"	NA	.	-1	-1	425	7905	19	5	5
Test	51	False	experiment	"Så snart jeg kom i skole, overtalte jeg sammen med nogle kammerater vores geografilærer til at tale om månerejser. Han var lige så fascineret som os og fortalte malende om vores solsystem og rumfartsprogrammet. Men en vigtig ting kom han slet ikke ind på, så jeg stak fingeren i vejret og spurgte undrende: 'Hvorfor er der ingen kvindelige astronauter?'"	"NO QUESTION"	NA	.	-1	-1	400	7905	20	5	5
Test	52	False	experiment	"Så lagde han cerutten i tavlens kridtrende – jo, dengang måtte lærerne ryge i klasseværelset! – lænede sig ud over katederet, rømmede sig, og sagde med alvor i stemmen: 'Det er, fordi kvinder har menstruation'. Jeg kan stadig mærke skammen stiger op i kroppen. Menstruation var ikke noget, man nævnte når der var drenge til stede. Med en enkelt sætning satte han, min beundrede lærer, mig uden for den store spændende verden sammen med mine veninder, vores mødre, tanter og lærerinder. Pludselig gik det op for mig, at det var drengekammeraterne i klassen, der skulle være opdagelsesrejsende, musketerer og astronauter – selvom mange af dem var ikke nær så gode til matematik og geografi som jeg og mine bedste veninder."	"NO QUESTION"	NA	.	-1	-1	385	7905	21	5	5
Test	53	False	experiment	"Jeg hævnede mig ved at glemme min geografilærers navn, men har ofte sendt ham en knytnæve i tankerne - som da jeg løb et maraton i 1986 ... med menstruation. Det var blot fire år efter, at den Olympiske Komité endelig gav kvinder lov til at løbe maraton til de olympiske lege. Senere i livet har jeg brugt geografilæreren som argument overfor folk, der hævder, at verden ikke bliver bedre, fordi der kommer en kvindelig statsminister, professor, biskop eller kvinder på andre magtfulde poster i samfundet. 'De fører jo samme politik som mænd,' lyder argumentet. Ja vist. Men derfor er verden nu alligevel blevet bedre for 12-års piger, som i dag har udkig til voksne kvinder, der har rokket alvorligt ved antagelserne om, hvilke grænser biologien sætter for kvinders livsudfoldelse."	"NO QUESTION"	NA	.	-1	-1	175	7905	22	5	5
Test	54	False	experiment	"Min mor – hun hed Lilly – tilhørte sidste generation, som blev opdraget med, at kvindens mål og pligt i livet er at holde hjemmet skinnende, ungerne vandkæmmede og manden så tilfreds, at han villigt går på arbejde og henter en løn hjem, der kan forsørge familien. I 1960 var der i Danmark 860.000 hjemmegående husmødre, der blev forsørget af deres mand. 30 år senere i 1990 var arbejdsstyrken steget med 800.000 personer – de 700.000 var kvinder. Og så skiftede forestillingen om den perfekte kvinde og det ideelle kvindeliv. Ægteskabet holdt op med at være 'den bedste sociale elevator for kvinden', som sociologiprofessor Svalastoga skrev i 1959. Det var en revolution."	"NO QUESTION"	NA	.	-1	-1	154	7905	23	5	5
Test	55	False	experiment	"I dag er kvinders sociale anseelse hovedsagelig afhængig af deres status på arbejdsmarkedet, uanset om de er gift eller ej. Ingen forældre råder nu til dags deres pigebørn til at finde sig en god forsørger. En god uddannelse, så man kan forsørge sig selv – og børnene, hvis man engang bliver skilt – er et meget bedre råd. Samtidig har forældreskabet ændret sig; bortset fra bilernes omfang er den største ændring i gadebilledet de mange mænd med børn i barnevogne, i bæreseler, på cykler og ved hånden. Det så man kun meget sjældent, da jeg var barn."	"NO QUESTION"	NA	.	-1	-1	73	7905	24	5	5
Test	56	False	experiment	"Ændringerne i forholdet mellem mænd og kvinder er gået hurtigt, ofte hurtigere end følelserne har kunnet følge med til, og med mellemrum bølger længslen efter gamle dages mere skarptskårne kønsroller. Nostalgien afspejler kvindebevægelsens evige dilemma: Ligesom andre store revolutionerende bevægelser, har kvindebevægelsens selvforståelse været, at feminismen bevæger samfundet fra undertrykkelse mod frigørelse, fra ufornuft mod fornuft, fra mørke mod lys - kort sagt, at de ændrede kønsroller, og frem for alt kvindernes indtog på arbejdsmarkedet, er et ubetinget historisk fremskridt. "	"Spørgsmål:\nMener kvindebevægelsen at kvindernes indtog på arbejdsmarkedet er et ubetinget historisk fremskridt?"	1	1	685	1	220	7905	25	5	5
Test	57	False	experiment	"Og den selvforståelse giver problemer: For hvordan kan det moderne familieliv med fuldtidsarbejde og børn, karriere og hus- og havearbejde kaldes et fremskridt, når det indimellem gør så ondt, at mange får lyst til at træde et par skridt tilbage i tidsmaskinen?"	"NO QUESTION"	NA	.	-1	-1	391	7905	26	5	5
Test	58	False	experiment	"Hvis man kaster et blik i statistikkerne, er der en påfaldende samtidighed i stigningen af antallet af mennesker, der er ramt af alvorlige stress-sygdomme, antallet af skilsmisser og utilpassede børn – og så det forhold, at danskere gennemsnitligt bruger flere timer dagligt på løn- og husarbejde end for 20, 30, 50 år siden. Tid, der tidligere blev brugt på socialt samvær med familie, venner og naboer. Sådanne statistikker råber på en kulturkamp, som sætter menneskers hverdagsliv i centrum. For det er da paradoksalt, at økonomerne pukker på, at vi danskere skal arbejde mere for at få råd til velfærd, mens undersøgelse på undersøgelse viser, at flertallet af danskerne synes, at mere fri tid er det største velfærdsgode. Hører I det, derinde i regeringsforhandlingerne på Christiansborg."	"Spørgsmål:\nHenviser taleren til statistik, der viser at danskerne gennemsnitligt bruger mere tid på løn- og husarbejde end for 30 år siden?"	1	1	433	1	334	7905	27	5	5
Test	59	False	experiment	"Den nostalgiske længsel efter gammeldags familiemønstre afspejler også, at moderne mandlighed og kvindelighed ofte opleves som i strid 'naturens orden'. Den største erkendelse, jeg har fået gennem arbejdet med at skrive danmarkshistorie ud fra kvinders perspektiv, er, at naturen, dvs. kvinders og mænds biologi, altid er blevet brugt konservativt som argument mod kvinders frigørelse og ligestilling mellem kønnene."	"Spørgsmål:\nHar taleren skrevet om danmarkshistorie?"	1	1	544	1	166	7905	28	5	5
Test	60	False	experiment	"I dag er kønnet i langt mindre grad en spændetrøje end for 100 eller 50 år siden, men der florerer stadig mange myter om ægte kvindelighed og ægte mandlighed, som gør os til kopier af idealforestillinger, i stedet for originale personligheder. Og de myter skal vi i fællesskab blive ved med at punktere, så vi hver især får plads til at være og udfolde os, som vi er. Mathilde Fibiger indledte kampen på kvindernes vegne – og livet kan kun blive mere mangfoldigt og rigt ved at fortsætte på alles vegne. "	"Spørgsmål:\nMener taleren at køn stadig er en spændetrøje for nogen?"	1	1	393	1	225	7905	29	5	5
Test	61	False	experiment	"Vi kan kun undgå moderne heksejagte, racistiske og sexistiske hetzbølger, shitstorme og mobbeofre, ved at efterleve den frihedstanke i Grundloven, som berusede Mathilde Fibiger: Du kan tænke og tale og tro og leve som du vil – så længe du ikke sætter din nabos frihed på spil."	"NO QUESTION"	NA	.	-1	-1	2647	7905	30	5	5
Test	62	False	experiment	"Rigtig god skt. Hans aften til jer alle."	"NO QUESTION"	NA	.	-1	-1	265	7905	31	5	5
Test	63	False	experiment	"NY TALE BEGYNDER NU"	"NO QUESTION"	NA	.	-1	-1	521	18473	-1	3	3
Test	64	False	experiment	"Goddag alle sammen. Mit navn er Frederik Sandby. Jeg er studerende ved kandidatuddannelsen i Klimaforandringer ved Københavns Universitet og er medstifter af Den Grønne Studenterbevægelse. I har måske hørt om os, ja, det er blandt andre os, som stædigt og utålmodigt går sammen i regn og slud til klimastrejkerne og mange af os, som arrangerer Folkets Klimamarch for at kræve øjeblikkelig klimahandling og en verden uden total klimakollaps."	"NO QUESTION"	NA	.	-1	-1	364	18473	0	3	3
Test	65	False	experiment	"I dag er jeg her jo for at tale om de 17 verdensmål, og det er vel meget passende, for som Katherine Richardson siger, så er den mest effektive måde at løse klimakrisen på samtidig at opfylde de 17. verdensmål."	"Spørgsmål:\nEr der 19 FN verdensmål?"	2	1	687	0	465	18473	1	3	3
Test	66	False	experiment	"De 17 verdensmål er en vision om en bæredygtig verden, men på mange måder er de 17 verdensmål for mange unge blevet synonym med politikere, som siger én ting, og gør en anden. Så når vi i dag er samlet for at tale om, hvordan vi kan engagere de mange frem for de få, så har vi først en grundlæggende opgave foran os. Vi har til opgave at sørge for, at vi få selv tror på de 17 verdensmål. For gør vi egentlig det?"	"NO QUESTION"	NA	.	-1	-1	339	18473	2	3	3
Test	67	False	experiment	"De 17 verdensmål handler om en verden i mere harmoni end i dag, men på en række af verdensmålene, nemlig de, som omhandler vores natur og klima, fejler vi igen og igen."	"Spørgsmål:\nMener taleren at vi klarer os godt i forhold til alle de 17 verdensmål?"	2	1	596	0	318	18473	3	3	3
Test	68	False	experiment	"Så er det da klart, at vi unge bliver desillusionerede, fordi samtidig med at vi kan se, at det går den forkerte vej, ser vi samtidig at danske og udenlandske forskere siger, at Danmark er et af de lande i verden, som bidrager allermest til menneskeskabte klimaforandringer pga. vores massive klimaaftryk. Derfor bliver de 17 verdensmål udvandede, og derfor går tusindvis af unge i Danmark og millioner af unge verden over fredag efter fredag sammen i klimastrejkerne."	"Spørgsmål:\nForegår klimastrejkerne om tirsdagene?"	2	1	1347	0	520	18473	4	3	3
Test	69	False	experiment	"Hvis vi ønsker, at verdensmålene skal forankres i befolkningen, så skal der først og fremmest ærlighed og ansvarlighed tilbage i Folketinget, ærlighed i at fortælle situationens alvor og ansvarlighed i at behandle det, for hvad det er: nemlig en eksistentiel krise."	"NO QUESTION"	NA	.	-1	-1	658	18473	5	3	3
Test	70	False	experiment	"Men bliver dette gjort? Mener I, at regeringens finansudspil afspejler en verden, der bevæger sig imod et økologisk kollaps og samfundskollaps? Kan man gå ind for de 17 verdensmål og fortsat give tilladelser til at udvinde mere og mere olie i Nordsøen? Det 13. verdensmål lyder: Vi skal handle hurtigt for at bekæmpe klimaforandringer og deres konsekvenser."	"NO QUESTION"	NA	.	-1	-1	2132	18473	6	3	3
Test	71	False	experiment	"Men alligevel får regeringen det til at lyde som om, at en 70% reduktion i danske, nationale drivhusgasser i 2030 målt i forhold til 1990 er en næsten uoverkommelig opgave, selvom det kun er et skridt på vejen til at opnå klimaretfærdighed og opfylde de 17 verdensmål."	"Spørgsmål:\nMener taleren at en 70% reduktion af danske nationale drivhusgasser i 2030 målt i forhold til 1990 er tilstrækkeligt for at opnå klimaretfærdighed?"	2	1	610	0	970	18473	7	3	3
Test	72	False	experiment	"For hvis vi omsætter reduktionsmålet til den procentmæssige reduktion i det totale danske klimaaftryk, altså medregnet forbrugsopgjorte udledninger, så er det kun en 25% reduktion i 2030 målt i forhold til i dag. Synes I, det er ambitiøst?"	"NO QUESTION"	NA	.	-1	-1	341	18473	8	3	3
Test	73	False	experiment	"Så sent som i tirsdags stod statsministeren og forsikrede os om, at regeringen vil handle for at opfylde det 13. verdensmål og bekæmpe klimakrisen. Men der er på nuværende tidspunkt absolut ingenting, som peger på, at vi tidsnok ser fundamentale samfundsforandringer. Til det er der brug for en helt ny form for politisk mod og vilje. Vi unge ønsker, at den viden, som udvikles på universiteterne også anvendes i samfundet. Vi ønsker et samfund, som er mere baseret på fakta, mod og visioner."	"NO QUESTION"	NA	.	-1	-1	594	18473	9	3	3
Test	74	False	experiment	"Selvom der allerede eksisterer bunkevis af forskning, som politiske ledere og beslutningstagere burde tage udgangspunkt i, så ønsker vi unge at se mere forskning, der søger at realisere globale mål for social og miljømæssig bæredygtighed. Og udover at bidrage til den internationale forskning skal disse resultater hurtigt omsættes til formidling, samarbejde og handling i dansk politik og bred offentlighed."	"NO QUESTION"	NA	.	-1	-1	57	18473	10	3	3
Test	75	False	experiment	"For der er behov for, at universiteterne målrettet arbejder med de 17 verdensmål som rettesnor, og at universiteterne får en stærkere rolle som den primære institution til at istandgøre fremtidens generationer til det 21. århundredes udfordringer."	"NO QUESTION"	NA	.	-1	-1	316	18473	11	3	3
Test	76	False	experiment	"Vi har brug for at få alle fagligheder i spil, da det i høj grad er gennem tværfaglige løsninger, at vi skal håndtere de 17 verdensmål. Vi skal have igangsat processer for, hvordan de enkelte fagområder kan arbejde med og bidrage til at forhindre klimaforandringerne og løse den økologiske krise. Centralt er det, at der også skal undervises i økonomiske teorier, hvor klodens planetære grænser indtænkes i det økonomiske system."	"NO QUESTION"	NA	.	-1	-1	445	18473	12	3	3
Test	77	False	experiment	"For et af vores største problemer er, at det økonomiske system, som vores fantastiske velfærdsstat, som visionære danskere har skabt i det 20. århundrede, er baseret på et stort forbrug af fossile brændsler og en generel overudnyttelse af jordens naturressourcer."	"NO QUESTION"	NA	.	-1	-1	369	18473	13	3	3
Test	78	False	experiment	"I det 21. århundrede er det modige politikeres opgave at redefinere velfærdsstaten på en måde, hvor velfærd og et lavt klimaaftryk går hånd i hånd. Det lykkes kun, hvis vi tager ansvar for alle de danske udledninger - også dem, vi har outsourcet til udlandet."	"NO QUESTION"	NA	.	-1	-1	79	18473	14	3	3
Test	79	False	experiment	"Hvis vi vil engagere de mange frem for de få i 17 verdensmål, så skal vi sørge for at vise, at de 17. verdensmål bliver taget seriøst. For verdensmålene er et smukt rammeværk for en bæredygtig verden for alle mennesker på planeten og en nødvendighed for fremtidens velfærd, stabilitet og lykke."	"NO QUESTION"	NA	.	-1	-1	430	18473	15	3	3
Test	80	False	experiment	"Engagement - Samarbejde - Forandring"	"NO QUESTION"	NA	.	-1	-1	890	18473	16	3	3
Test	81	False	experiment	"NY TALE BEGYNDER NU"	"NO QUESTION"	NA	.	-1	-1	1385	11171	-1	3	3
Test	82	False	experiment	"Kære Alle\nMit navn er Andrea Rygg Karberg, og jeg startede 1. juni som ny direktør for Nivaagaards Malerisamling. Mine første 23 dage har været forrygende travle, skægge og glade. Jeg har set frem til at opleve også denne her smukke Nivaagaard-tradition, og jeg blev meget beæret, da jeg blev bedt om at holde årets båltale. En båltale er jo sådan en slags frit emne, så jeg har haft mange forskellige ideer – og jeg er endt med at ville tale om en række H’er: Sankt Hans – hedenskab – hekse – og Holger Drachmann."	"NO QUESTION"	NA	.	-1	-1	704	11171	0	3	3
Test	83	False	experiment	"Det er faktisk i morgen, 24. juni, der altid har heddet sankthansdag – og aftenen inden er så sankthansaften – og denne Hans er det danske navn for Johannes Døberen, ham vi kan se i mange værker herinde i samlingen! Han var jo lidt af en dommedagsprædikant, der også banede vejen for profetens komme og døbte Jesus. Hans mor var i familie med Jomfru Maria, og når madonna af og til ses afbildet med to drengebørn, er den ene altid Jesusbarnet og den anden Johannes Døberen, der altså var netop et halvt år ældre end Jesus."	"NO QUESTION"	NA	.	-1	-1	630	11171	1	3	3
Test	84	False	experiment	"Danskernes sankthansbål og sankthanstraditioner har for mig at se intet med Johannes Døberen at gøre. Det er gamle hedenske traditioner, der er overført til den kristne tid og har fået nye navne. Vi fejrer i dag, at vi sådan ca. har årets længste dag og årets korteste nat – ligesom vi har lagt Jesu fødselsdag ca. på den dag, hvor man altid har markeret årets korteste dag og længste nat. "	"NO QUESTION"	NA	.	-1	-1	882	11171	2	3	3
Test	85	False	experiment	"Så selv om det ikke er til at holde ud at tænke på, handler dagen i dag om, at nu går vi mod mørkere tider!! Og det er jo fornuftigt at udskyde det længst muligt ved blandt andet at tænde et stort bål og nyde ildens lys som en hyldest til den livgivende sol, vi elsker og tit savner. I alle de såkaldt primitive religioner er solen den stærkeste guddom, og festen i dag er i sin grundvold herligt hedensk."	"NO QUESTION"	NA	.	-1	-1	525	11171	3	3	3
Test	86	False	experiment	"Så er der det med heksene. Vi har i dag her på bålet en sjældent flot en af slagsen, som er lavet af de lokale spejder-juniorer, 'De Vilde Svaner', som jeg gerne vil sige en stor tak til. Jeg vil også gerne sige tak til en af vores mange fantastiske frivillige, John, som, når jeg er færdig, vil tænde bålet. "	"Spørgsmål:\nHar spejderne 'De Vilde Svaner' lavet heksen på bålet?"	1	1	971	1	368	11171	4	3	3
Test	87	False	experiment	"Jeg ved ikke, hvad Nivaagaards Malerisamling skulle gøre uden jeres mange talenter og store engagement, det er helt vidunderligt, at der er så mange, der gerne vil yde noget ekstra i en god sags tjeneste, som eksempelvis en kunstsamling i verdensklasse, der er givet i gave til os alle. Generøsitet er et nøgleord for Nivaagaards Malerisamling.
"	"NO QUESTION"	NA	.	-1	-1	627	11171	5	3	3
Test	88	False	experiment	"Tilbage til H’erne og heksene. De kloge koner med kendskab til magi. Deres urgamle ritualer blev forbudt med kristendommen, de blev gjort til noget uhyggeligt i folkeeventyrene, hvor de vil spise Hans og Grethe, og det er først på det seneste med Harry Potter bøgerne, at de er blevet populære igen. Heksebrændingerne er et meget mørkt kapitel i historien."	"NO QUESTION"	NA	.	-1	-1	885	11171	6	3	3
Test	89	False	experiment	"I Danmark intensiveredes heksejagten under Kong Christian IV, renæssancekongen, i den tid, vi også har mange billeder fra her i samlingen. Vi kender ham som en kunstnerisk sjæl og en stor bygherre – og så var han helt vild med kvinder. Han var en mægtig herre, men tit tog kvinderne magten over ham, de ødelagde hans koncentrationsevne – han blev kulret og tænkte sandsynligvis, at det aldrig kunne være hans egen skyld, men at kvindfolk simpelthen havde en særlig evne til at forhekse de stakkels mænd."	"NO QUESTION"	NA	.	-1	-1	1273	11171	7	3	3
Test	90	False	experiment	"Der findes mange nedskrevne retssager fra den tid, og det er frygteligt at tænke på, hvis man ikke selv i dag tror på hekse, hvad det er for faktorer, der har gjort visse kvinder til udstødte syndebukke og ofre for beskyldninger om at være hekse. Det har tit været de klogeste og smukkeste kvinder, som nogle var jaloux på, eller de svageste og fattigste, som var nemme at træde på. De benægtede alle til at starte med, men efter en passende mængde tortur indrømmede de deres heksekunster, som vi nok alle ville gøre."	"NO QUESTION"	NA	.	-1	-1	280	11171	8	3	3
Test	91	False	experiment	"Jeg har læst om en ægtemand, der holdt en hel uge, før han indrømmede, at ja, hans kone var så en heks da. Og så blev de brændt, og med dem det onde selv, håbede man. Nogle århundreder senere kan tingene blive vendt på hovedet, og dermed hvem, der egentlig udførte den onde handling. Behovet for syndebukke er almenmenneskeligt og florerer til alle tider. "	"NO QUESTION"	NA	.	-1	-1	314	11171	9	3	3
Test	92	False	experiment	"Selv om det er helt utopisk, er det mit ønske, at den heks, vi brænder i aften, ikke er et menneske, men et symbol på al uretfærdighed. Lad os brænde behovet for syndebukke og påtage os ansvaret for vore egne handlinger. Lad os favne heksene, dem, der render rundt derude – og heksene i os selv. Der er gode og onde tilbøjeligheder i os alle, og hvis man vil stræbe efter at udrydde det onde, er det ganske fornuftigt at prøve at starte med sig selv."	"NO QUESTION"	NA	.	-1	-1	289	11171	10	3	3
Test	93	False	experiment	"Og så er jeg nået til den kære Holger Drachmann, som jo har skrevet den midsommervise, vi om lidt skal synge, som John vil hjælpe med at dele ud. Teksten er så smuk, og jeg håber sådan, at vi kan leve op til digterens ord om, at vi vil kæmpe imod ufred, lidt selvmodsigende, men netop fordi vi vil have fred her til lands. Og Drachmann slutter med at sige, at freden kan vindes, hvor hjerterne aldrig bliver tvivlende kolde."	"Spørgsmål:\nHar Herman Drachmann skrevet midsommervisen?"	2	1	549	0	375	11171	11	3	3
Test	94	False	experiment	"Det er rigtigt. Når ondskaben skal bekæmpes, skal vi starte i vore egne hjerter. Hvad end vi i aften mindes Johannes Døberen eller solguden, brænder vi på vores bål ikke en stakkels uskyldig heks. Vi drømmer om at brænde ufreden selv. Vi sender kærlige tanker til alle de studenter, der har kørt i vogn i dag, og til alle unge mennesker, der med digterens ord lige nu går glade til dans. Vi glæder os til den lange, smukke og vidunderlige sommer, der ligger foran os. Og lad nu vores sankthansbål varme os helt ind i vores hjerter, så de aldrig bliver tvivlende kolde."	"NO QUESTION"	NA	.	-1	-1	265	11171	12	3	3
Test	95	False	experiment	"NY TALE BEGYNDER NU"	"NO QUESTION"	NA	.	-1	-1	204	26670	-1	2	2
Test	96	False	experiment	"Kære Studenter\nRigtig hjertelig tillykke med jeres eksamen. I er ved vejs ende og kan puste ud. I har gået på Viborg Katedralskole i tre år. Det har været tre år med masser af hårdt arbejde, danske stile, matematikafleveringer, Studieretningsprojekt, fremlæggelser på klassen og nu til slut diverse eksaminer. Men det har selvfølgelig også været klassefester, Minervafester, galla, studierejser og diverse cafeer. "	"NO QUESTION"	NA	.	-1	-1	362	26670	0	2	2
Test	97	False	experiment	"Men fælles for jer alle er, at I har brugt masser af kræfter på fagene og skolegangen – ellers havde I ikke siddet foran mig her i dag. Så nu er det tid til at feste og fejre sammen med kammerater og sammen med familien. I har fortjent det, og man hviler så godt ovenpå fuldendt gerning."	"NO QUESTION"	NA	.	-1	-1	327	26670	1	2	2
Test	98	False	experiment	"Jeg vil også sige tillykke til jeres familie, der har støttet jer og stået bag jer i de tre år I har gået her. For alle os der har været med jer på rejsen hertil er det skønt at være her i dag. Vi glæder os alle sammen med jer og vi er stolte af jer."	"Spørgsmål:\nSiger taleren også tillykke til studenternes familier?"	1	1	501	1	53	26670	2	2	2
Test	99	False	experiment	"Nu er tiden på VK forbi. Et kapitel i jeres liv er slut. I er naturligvis glade for at det er ovre. Nu kan I med rigtig god samvittighed nyde, at I er færdige, nyde sommeren, den blå himmel, de mange flag, turene rundt til klassekammeraterne og ja en enkelt øl eller to måske – ja alle de forskellige festlige lejligheder. Det er i det hele taget en særdeles lykkelig tid."	"Spørgsmål:\nOmtaler taleren gymnasiet som 'RK'?"	2	1	1042	0	81	26670	3	2	2
Test	100	False	experiment	"Lykke – Jeg vil starte med uddrag af et digt om lykken skrevet af Benny Andersen\nder er noget særligt ved lykken\nsom man ellers ikke møder\nmåske ligger fejlen der\nman kender for lidt til den\nburde sætte sig mere ind i den\n– jeg tror at det er en træningssag"	"NO QUESTION"	NA	.	-1	-1	63	26670	4	2	2
Test	101	False	experiment	"Lykken er noget særligt – noget positivt, men man kender for lidt til den siger Benny Andersen. Han tror det er en træningssag, at man bliver bedre til at være lykkelig, hvis man øver sig. Nu vil jeg dvæle ved hvad det vil sige at være lykkelig, altså at lære den at kende, så kan I kaste jer over træningen bag efter."	"Spørgsmål:\nHar Benny Andersen skrevet digtet om lykke?"	1	1	1759	1	2442	26670	5	2	2
Test	102	False	experiment	"Professor ved Aarhus Universitet Christian Bjørnskov har forsket i lykke og skrevet en bog om emnet. Jeg vil give jer en række citater af ham for på den måde at blive klogere på lykken. Bjørnskov skelner mellem to forskellige former for lykke: den lykkefølelse, der udspringer af lykkelige øjeblikke og så den mere langvarige lykke – det gode liv."	"NO QUESTION"	NA	.	-1	-1	3235	26670	6	2	2
Test	103	False	experiment	"De berusende, lykkelige øjeblikke – lykkeglimt – håber jeg, at I har haft og har mange af for tiden: når en mundtlig eksamen var godt overstået, det øjeblik hvor I endelig fik huen på hovedet af én som står jer nær, når familie og venner kommer for at fejre jer. Den slags lykkelige øjeblikke er vigtige for os. Den slags oplevelser skal helst komme ind i mellem og give os gode minder. Christian Bjørnskov er dog mere optaget af den langvarige lykke – det gode liv. Jeg vil fremhæve nogle af de elementer som ifølge Bjørnskov er med til at skabe det gode liv."	"NO QUESTION"	NA	.	-1	-1	751	26670	7	2	2
Test	104	False	experiment	"Det første jeg vil nævne, er den personlige frihed, retten til selv at vælge livsforløb er vigtig for menneskers langvarige lykkefølelse. Der er heldigvis mange veje til det gode liv. Det er vigtigt, at man får lov til at vælge sine egne veje. Christian Bjørnskov siger: 'Fornemmelsen for personlig frihed i eget liv er central for folks opfattelse af deres eget liv, det giver dig mulighed for at vælge egen livsstil og –retning og mulighed for at lave ting om'."	"NO QUESTION"	NA	.	-1	-1	2328	26670	8	2	2
Test	105	False	experiment	"I forhold til det sidste 'mulighed for at lave ting om' og dermed påvirke jeres dagligdag og sætte jeres præg på tingene. Den mulighed har mange af jer benyttet jer af i den tid, I har gået her. Mange af jer har mest bidraget i faglige sammenhænge på klassen eller i sociale sammenhænge, hvor I var med til at sikre et godt sammenhold i klassen"	"NO QUESTION"	NA	.	-1	-1	488	26670	9	2	2
Test	106	False	experiment	"Andre var med i Senatet eller i forskellige former for udvalgsarbejde. Der er fx nogle af jer, som har været med i Grøn VK og på den måde taget en række initiativer på skolen. I har fx delt rundstykker ud til dem som kom på cykel og os der kom i bil måtte undvære rundstykkerne og nøjes med den dårlige smag i munden mens vi dukkede os bag bilruden. Nogle af jer har været med til at lave musicalen 'Enden før begyndelsen'. Heri diskuterede I, hvad det var, det begrænsede jeres frihed. "	"NO QUESTION"	NA	.	-1	-1	2784	26670	10	2	2
Test	107	False	experiment	"Jacob sagde 'Hvis frihed er vores mål, så er det eneste vi skal gøre at fjerne alle de ting, der forhindrer os i at gøre hvad vi vil'. Og så diskuterede I hvad det var - om det var skolen eller det var forpligtelsen til hele tiden at være online. I musicalen klippede I kablet til nettet og gjorde oprør mod skolens stramme rammer."	"NO QUESTION"	NA	.	-1	-1	898	26670	11	2	2
Test	108	False	experiment	"Nogle af jer har siddet i morgensamlingsudvalget og har gang på gang brugt en aften eller en søndag eftermiddag på at forberede morgensamling for resten af skolen. Nogle af jer har arrangeret velgørenhedsløb for de danske hospitalsklovne, en gruppe har arrangeret galla her i skolegården og meget, meget andet. Et af de sidste aftryk, I har sat på skolen, var en flot 3.g-underholdning på jeres sidste skoledag. Det var en god og sjov afslutning på jeres tre år. I har på mange forskellige måder sat jeres præg på skolen. "	"Spørgsmål:\nRefererer taleren til at eleverne har arrangeret fredagsbar?"	2	1	2060	0	649	26670	12	2	2
Test	109	False	experiment	"Jeg vil sige jer rigtig mange tak for jeres bidrag. Det er dem, der gør Katedralskolen til et helt særligt sted at være."	"NO QUESTION"	NA	.	-1	-1	3247	26670	13	2	2
Test	110	False	experiment	"I forhold til at bruge den personlige frihed til at vælge livsstil og retning, er der rigtig mange valg at træffe: Hvor og hvordan skal I bo? Alene eller sammen med andre? Og hvis det er sammen med andre, er det så at blive hjemme ved forældrene lidt endnu eller flytte sammen med venner eller en eventuel partner? Og hvor skal det være? I Viborg eller en af de store studiebyer – eller i udlandet? "	"NO QUESTION"	NA	.	-1	-1	270	26670	14	2	2
Test	111	False	experiment	"Hvad skal I bruge tiden på både på kort sigt og længere sigt? Skal man vælge et sabbatår og ud at tjene penge? Eller et sabbatår og ud at rejse? Eller gå i gang med uddannelsen med det samme? Ja det lyder jo overvældende med de alle de spørgsmål, men jeg vil bevæge mig ud på dybt vand og give mit bud på et svar lige om lidt, men inden da vil jeg komme ind på et par punkter mere vedrørende det gode liv – det lykkelige liv."	"NO QUESTION"	NA	.	-1	-1	251	26670	15	2	2
Test	112	False	experiment	"Et andet vigtigt punkt i forhold til den langvarige lykke er sociale relationer og det at have tillid til hinanden. I mange tilfælde er vi afhængige af hinanden og afhængige af personer vi ikke kender. Christian Bjørnskov siger: 'Tillid og ærlighed belønnes med tillid og ærlighed. Jo længere tilliden strækker sig til andre mennesker desto mere beskyttet er vi mod mange af de bekymringer, som ellers kunne belaste os ..."	"NO QUESTION"	NA	.	-1	-1	342	26670	16	2	2
Test	113	False	experiment	"Den helt store konklusion er, at andre mennesker er den vigtigste kilde til vores lykke'. Altså vores familie, vores venner, den rigtige partner, et godt netværk og det at indgå i et fællesskab."	"NO QUESTION"	NA	.	-1	-1	304	26670	17	2	2
Test	114	False	experiment	"De sidste tre år har en væsentlig del af jeres sociale liv foregået på Viborg Katedralskole både i og udenfor timerne, I har været en del af VK-fællesskabet. For mig personligt har det været en fornøjelse at følge jer på sidelinjen og opleve den gode stemning fx til lektiecafe på biblioteket eller ved et gruppearbejde på balustraden eller i skolegården til aftensmad på kollegiet eller til cafe i Kentauerhaven. Det er nogle af de gode minder om jeres årgang, som jeg vil tage med mig. "	"NO QUESTION"	NA	.	-1	-1	99	26670	18	2	2
Test	115	False	experiment	"Hvis enkelte af jer skulle blive en smule vemodige ved tanken om at det er slut med VK-fællesskabet og at der er nogle af kammeraterne som I måske aldrig ser igen, så vil jeg med Dr. Seuss’ ord sige: 'Græd ikke fordi det er slut, smil fordi det er sket'. Jeg håber og tror, at I har skabt netværk her på skolen, nogen som bliver ved med at være en del af jeres bekendtskabskreds og nogen I altid vil kunne trække på, så I kan tage en del af VK-ånden og VK-fællesskabet med jer."	"NO QUESTION"	NA	.	-1	-1	375	26670	19	2	2
Test	116	False	experiment	"Det sidste punkt jeg vil nævne i forhold til den langvarige lykke, er uddannelse, arbejde og karriere. Nu står I ganske vist overfor en velfortjent sommerferie, så lige nu er det sikkert vanskeligt at se arbejde og uddannelse som en vej til det gode liv. I den netop overståede læseferie har det været skolen, som har forhindret jer i det gode liv, men vi glæder os jo netop til ferierne fordi de er afbræk fra hverdagen – vi føler, at vi har gjort os fortjent til dem. Arbejde og studier giver identitet og en følelse af at man bidrager til fællesskabet og til samfundet."	"NO QUESTION"	NA	.	-1	-1	438	26670	20	2	2
Test	117	False	experiment	"Det giver en følelse af at man hører til og at man har betydning. Tænk bare på en undervisningssituation. Den gode time opstår netop når alle er med og deltager. Eller gruppearbejdet, der ikke fungerer, hvis nogen af gruppemedlemmerne bliver hjemme – særligt ikke hvis det er ham eller hende der har notaterne."	"NO QUESTION"	NA	.	-1	-1	292	26670	21	2	2
Test	118	False	experiment	"Nu får I dagens sidste citat af Christian Bjørnskov. Han siger det på følgende måde: 'Hvis du vil være lykkelig, skal du arbejde med det, du er bedst til – og har mest lyst til ... Valg af uddannelse og karriere er vigtige beslutninger, som kræver omtanke og fordybelse ... Det kræver, at du mærker efter, hvad der vil gøre dig lykkelig ... Hvis du har brug for tid til at finde dig selv og til at tænke over, hvad du gerne vil, er den tid rigtig godt givet ud'."	"NO QUESTION"	NA	.	-1	-1	286	26670	22	2	2
Test	119	False	experiment	"Mange slår i disse år på tromme for, at alle unge skal vælge uddannelse hurtigst muligt og gennemføre på kortest mulig tid. For nogle af jer er det et godt råd, fordi nogle af jer ved allerede, hvad I vil læse og har planlagt at starte efter sommerferien – og det er fint. Men der er også mange af jer som ikke har besluttet jer endnu eller som af andre grunde har behov for sabbatår. "	"NO QUESTION"	NA	.	-1	-1	292	26670	23	2	2
Test	120	False	experiment	"Det er der ikke noget galt med. Man kan foretage sig mange fornuftige ting i et eller flere sabbatår: man kan lære meget af at rejse eller være på højskole og meget andet, men også more sig og mærke livet væk fra lektier, afleveringer og eksaminer. For de af jer, der har brug for tid til at finde jer selv og til at tænke over, hvad I gerne vil, er den tid rigtig godt givet ud, bare I sørger for at få jer en uddannelse, når I er rede til det."	"Spørgsmål:\nMener taleren at der kan komme noget godt ud af at tage et sabbatår?"	1	1	775	1	262	26670	24	2	2
Test	121	False	experiment	"Nogle gange kan den personlige frihed og det faktum, at man selv skal vælge sin egen vej, også føles som en belastning. Man kan føle, at man så også står alene med ansvaret. Det vil jeg gerne forsøge at bløde lidt op på. Jeg lovede tidligere i min tale, at jeg ville give mit bud på hvad I fremadrettet skal bruge tiden på – det punkt er jeg kommet til nu. Ikke overraskende er mit svar, at det findes der ikke kun ét svar på. Der ikke kun én lykkelig vej til dét gode liv."	"NO QUESTION"	NA	.	-1	-1	281	26670	25	2	2
Test	122	False	experiment	"For de fleste af os findes der mange veje og mange forskellige mulige versioner af det gode liv. Et kinesiske ordsprog siger: 'Lykke er ikke en destination, men en måde at rejse på' og vær opmærksom på 'at lykken aldrig bliver mindre af at blive delt'."	"NO QUESTION"	NA	.	-1	-1	706	26670	26	2	2
Test	123	False	experiment	"For det drejer sig for hver enkelt af jer om at vælge én af flere mulige veje. Hav tillid til jer selv og til hinanden og brug jeres netværk. Påvirk vejen mens I rejser, så bliver det til jeres gode liv. Jeg vil ønske jer rigtig god rejse."	"Spørgsmål:\nOpfordrer taleren studenterne til at bruge deres netværk?"	1	1	714	1	364	26670	27	2	2
Test	124	False	experiment	"Med disse ord dimitterer jeg jer som studenter fra VK 2016."	"NO QUESTION"	NA	.	-1	-1	527	26670	28	2	2
Test	125	False	experiment	"NY TALE BEGYNDER NU"	"NO QUESTION"	NA	.	-1	-1	1077	12063	-1	2	2
Test	126	False	experiment	"Lys, der varer ved. Bål, der slår gnister. Glade stemmer, der blander sig med hinanden. Studenterhuer, der viser sig overalt i gadebilledet. Sommerferie, der står for døren. Fællessang, der luner. En kold øl."	"NO QUESTION"	NA	.	-1	-1	482	12063	0	2	2
Test	127	False	experiment	"'Vi elsker vort land, men ved midsommer mest'."	"NO QUESTION"	NA	.	-1	-1	748	12063	1	2	2
Test	128	False	experiment	"Uanset hvilken melodi, man synger på, hvilket næb man synger med, eller hvilken hue, man har på til anledningen, så er midsommer og sankthans bare indbegrebet af Danmark."	"NO QUESTION"	NA	.	-1	-1	1594	12063	2	2	2
Test	129	False	experiment	"Til sankthans er 'sommerens hjerter så varme, så glade'. Her 'går ungdom til dans'. Og det hele passer derfor også så fortrinligt til en fest som den, vi har her i aften tæt ved Domus Felix, et hus, hvis navn er latin og betyder noget med glædens hus, det glade hus, med plads til fornøjelse."	"NO QUESTION"	NA	.	-1	-1	1752	12063	3	2	2
Test	130	False	experiment	"Vi har heldigvis så meget at være glade for i Danmark, og også her ved det glade hus i selskab med masser af glade mennesker i Lejre."	"NO QUESTION"	NA	.	-1	-1	1669	12063	4	2	2
Test	131	False	experiment	"Kun finnerne er lykkeligere end danskerne, viser den årlige rapport med titlen 'World Happiness Report', ifølge TV2. Men vi er foran både Norge, Sverige og Canada og flere andre gode lande. Og allernederst er lande som Sydsudan, Yemen og Haiti med ufattelige mængder af dræbte i krig, borgerkrig og naturkatastrofer."	"NO QUESTION"	NA	.	-1	-1	327	12063	5	2	2
Test	132	False	experiment	"Vi har en fredelig natur, en stærk kultur, et levende demokrati, i Lejre, på Sjælland, i Danmark. Og vi har lige fået lov til at sige vores mening ved to valg i træk. Vi kan mødes frit, tale frit, tænke frit, udvikle os, modtage undervisning, søge lykken for os selv og for vores børn."	"Spørgsmål:\nNævner taleren at der netop har været valg i Danmark?"	1	1	892	1	267	12063	6	2	2
Test	133	False	experiment	"Det er lidt anderledes, end hvad den tyske biskop Thietmar af Merseburg skrev om lige i begyndelsen af 1000-tallet efter at have undersøgt forholdene på vore breddegrader. Biskoppens ord lød:"	"Spørgsmål:\nVar biskop Thietmar af Merseburg tysk?"	1	1	588	1	293	12063	7	2	2
Test	134	False	experiment	"'Der er i de egne et sted, der hedder Lederun [Lejre], i det distrikt der hedder Selon [Sjælland]; der er kongedømmets hovedstad. Til dette sted kommer alle folk sammen hvert niende år i januar måned, efter den tid, hvor vi fejrer Herrens tilsynekomst (jul), og der ofrer de 99 mænd og lige så mange heste og hunde og haner i stedet for høge. Sikkert og vist mener de, som jeg tidligere har sagt, at disse vil bevare dem for underverdens magter, og at de vil sone de forbrydelser, de har begået mod dem.'"	"NO QUESTION"	NA	.	-1	-1	1379	12063	8	2	2
Test	135	False	experiment	"Det er min gode, gamle kollega fra Københavns Universitet, Morten Warmind, der har oversat den tekst, jeg læste. Og oversættelsen indgår som et slående citat i et nyt forskningsværk, som en ny kollega fra ROMU lige har været med til at udgive. Citatet trækker på godt og ondt Lejres historie meget langt tilbage i tiden."	"NO QUESTION"	NA	.	-1	-1	187	12063	9	2	2
Test	136	False	experiment	"Arkæolog Tom Christensen, der i årtier har arbejdet i området, har gennem sit arbejde kunnet finde forbindelser endnu længere tilbage og dokumenteret magt og organisation og imponerende bygnings-konstruktioner i det, vi i dag kender som Gl. Lejre, helt tilbage til sen jernalder og tidlig vikingetid. Det var og er et vigtigt sted, som vi i dag holder sankthansfest ved. Smukt. Rigt. Centralt. Betydningsfuldt. Med fædrene gravhøje, der går årtusinder tilbage."	"NO QUESTION"	NA	.	-1	-1	1265	12063	10	2	2
Test	137	False	experiment	"LEJRE betyder hytte eller telt. Det var et centrum i århundrederne før Gorm den Gamle og Harald Blåtand for flere af de historier om Danmark, som vi siden har bygget vores fællesskab op omkring."	"NO QUESTION"	NA	.	-1	-1	282	12063	11	2	2
Test	138	False	experiment	"Men det er også meget godt, at vi er kommet videre i menneskesyn og normer. Godt nok synger vi, 'hver by har sin heks, og hvert sogn sine trolde', men vi nøjes i dag da heldigvis med at holde hekse og trolde og andet ondskab i skak med glædesblus, med lys, med hjertevarme, med godt humør, med fællesskab, med overskud."	"NO QUESTION"	NA	.	-1	-1	227	12063	12	2	2
Test	139	False	experiment	"Det er på vore breddegrader for længst slut med den slags gamle ritualer, hvor mennesker måttes i bytte for andre menneskers liv og lykke."	"NO QUESTION"	NA	.	-1	-1	219	12063	13	2	2
Test	140	False	experiment	"'Vi vil fred her til lands, sankte Hans, sankte Hans!', synger vi. Og freden kan vindes der, hvor hjerterne aldrig bli’r tvivlende kolde."	"NO QUESTION"	NA	.	-1	-1	383	12063	14	2	2
Test	141	False	experiment	"Når nogle måske i denne sommer har set et F16-fly med Dannebrogs farver på oppe på himlen, så er det derfor heller ikke et signal om krig, men en venlig påmindelse om, at vi i fred og fordragelighed i år kan fejre 800-året for, at Dannebrog blev vores kongeflag og siden nationalflag."	"Spørgsmål:\nEr Dannebrog 900 år gammelt?"	2	1	532	0	317	12063	15	2	2
Test	142	False	experiment	"Vi elsker vort land, men ved midsommer mest."	"NO QUESTION"	NA	.	-1	-1	419	12063	16	2	2
Test	143	False	experiment	"Det var også i højsommeren 1969, altså for 50 år siden, at et menneske første gang satte sine ben på Månen. Og vi fik billeder retur deroppefra, som viste, hvor lille, hvor skrøbelig, hvor overskuelig og hvor smuk, den runde jord tager sig ud – sådan lidt på afstand."	"NO QUESTION"	NA	.	-1	-1	1413	12063	17	2	2
Test	144	False	experiment	"Og det var i sensommeren 1969, at det senere så populære og folkekære band Gasolin’ med Kim Larsen som forsanger blev til. Gasolin’ og Kim Larsen havde masser af succes dengang. Men de vidste også, at om natten, når lyset brænder ud, og alt bliver stille, så er du, så er jeg, ene og alene."	"NO QUESTION"	NA	.	-1	-1	247	12063	18	2	2
Test	145	False	experiment	"Det er livets kontrast, som fejringen af sankthans med bål og sange og fællesskab også minder os om. Vi tænder lyset, når mørket er ved at falde på. I mørkets skær, ser vi lyset bedst. Det er i kontrast til stilheden, at vi værdsætter al den pludren, snakken og brummen, som er lyden af fællesskab og fest og glæde."	"NO QUESTION"	NA	.	-1	-1	351	12063	19	2	2
Test	146	False	experiment	"Det er, når vi tænker på, hvor slemt det var engang, eller hvor ulykkeligt livet kan være i andre lande, at vi opdager, hvor lyst, hvor godt, hvor dejligt, vi i grunden selv har det. Det er, når vi ser på jorden ude fra universet, at vi opdager, hvor skrøbelig den er, og hvor meget, vi har brug for at passe på den og på hinanden. Det er efter en lang stribe af hverdage, at det er så helt vidunderligt at kunne holde fest, sankthansfest, midsommerfest, glædesfest, lysfest."	"NO QUESTION"	NA	.	-1	-1	264	12063	20	2	2
Test	147	False	experiment	"Og lad så hjertevarmen og glædesblussene holde rigtig, rigtig længe i år. Rigtig god sankthans. Og rigtig god sommer."	"NO QUESTION"	NA	.	-1	-1	923	12063	21	2	2
Test	148	False	experiment	"NY TALE BEGYNDER NU"	"NO QUESTION"	NA	.	-1	-1	853	7946	-1	4	4
Test	149	False	experiment	"Godaften, og tak fordi jeg må komme og holde årets båltale. Jeg har glædet mig til skulle stå her i aften og holde båltalen og dermed fejre midsommer eller Sankt Hans aften, som det jo også hedder, sammen med alle jer. Midsommer er en helt speciel tid for mig, den er faktisk lige så vigtigt for mig som julen. For hvor vi ved jul mødes i mørket om de små lys. Så mødes vi i aften i det lille mørke for sammen at fejre det helt store lys. Velvidende, at nu drejer årstidshjulet en tak. Nu står vi midt i sommeren, og vi går dermed ... ja, jeg er ked af at sige det ... men vi går faktisk mod mere mørke tider."	"NO QUESTION"	NA	.	-1	-1	255	7946	0	4	4
Test	150	False	experiment	"Men lad os nu glemme det for en stund og i stedet glæde os over lyset. Og lad os glæde os så meget, at vi også her i aften tænder lys. Og hygger og er sammen. For når vi så vælger at gå ud af vore huse. Ud af vores carporte og stige ned fra vore cykler og ud af vore biler. For at stå her sammen. Er det vel egentlig også, fordi vi ønsker at dele denne begejstring for lyset med hinanden. For hver eneste af jer. Er der noget, der gør, at I ikke synes, det er nok bare at tænde et fyrfadslys og passe parcellen."	"NO QUESTION"	NA	.	-1	-1	289	7946	1	4	4
Test	151	False	experiment	"Nej, både I børn og I voksne har søgt mod det her fælleskab. Og hvorfor gør vi egentlig det som moderne mennesker midt i en online tid? Jamen så er det vel fordi – og pardon my french – at det sgu ikke bare er noget middelalderligt pjat med hekse og helgener. Eller vikingetidens Frejakult. Så er det, fordi det giver mening. Så vil jeg gætte på, at I er kommet, fordi midsommerfælleskabet og det store bål på en eller anden måde siger noget for jer, ligesom det siger mig noget."	"NO QUESTION"	NA	.	-1	-1	182	7946	2	4	4
Test	152	False	experiment	"At stå her i midsommernatten. Og være fælles. Om lyset. Om varmen. Om sundet og Kronborg. Om fællesskabet. Selv med svenskerne derovre på den anden side. Fælles om ilden. Om jorden og havet, der omgiver vores lille ø Sjælland. Om dyrene og hinanden. Fælles om fred og de elementer og mineraler, der forbinder os. Om kvantepartiklerne, som er inden i os og millioner af kilometer væk, og dog er forbundne. Om demokratiet, som vi netop igen for få uger siden har fejret, uanset om vi er tilfredse med udfaldet eller ej. Fælles om vor historie. Som vore forfædre har bygget til os. I form af murstene som slottet bagved mig. Hvor en konge ved navn Christian holdt sin kroningsfest. "	"Spørgsmål:\nBliver denne tale holdt på Frederiksborg Slot?"	2	1	673	0	288	7946	3	4	4
Test	153	False	experiment	"Og en flok engelske skuespillere optrådte og fortalte om derhjemme, som blandet med Saxos fortællinger om en dansk prins, et engelsk hævndrama om en spansk tragedie, og en vis forfatters søns og faders død blev til en af de største fortællinger om os nogensinde, ikke bare som danskere, men som mennesker, om hvad det er at være menneske, på trods af at forfatteren efter sigende aldrig selv befandt sig på denne kyst. Fælles er vi også om de fortællinger, der har skabt denne aften. Om Lysfester, der skulle holde ondskaben ude. Om trolde og hekse, dæmoner."	"NO QUESTION"	NA	.	-1	-1	310	7946	4	4	4
Test	154	False	experiment	"Solhversfesten, der overtog Valborgsnatten. Hvor mænd og kvinder drak snaps til de segnede. Og de unger piger skulle vogte sig for Sankthansormen. For den kunne man nemlig blive gravid af. Fælles er vi også om den rensende ild, det rensende bål, som ifølge gammel skik optager alle vore indre hekse, dæmoner og trolde. Og som ved at dvæle blikket mildt og uden at fokusere, stimulerer melatoninen inde i vore hjerner. Gør os rolige, afslappede, fredfyldte."	"NO QUESTION"	NA	.	-1	-1	311	7946	5	4	4
Test	155	False	experiment	"Fælles er vi i fortællingen. Om en mand 3426 km herfra, som ifølge en læge ved navn Lukas, fødtes på denne dag. 6 måneder før sin fætter, hvis ankomst han skulle forkynde. Manden ved navn Johannes råbte i ørkenen om det, der vil ske, de muligheder, der vil komme. Efter ham opkaldtes denne dag nogle århundreder senere: Johannes dag, Johannes den hellige, sanctus Johannes, eller på DANSK: Sankt Hans. Fælles er vi om denne historie. Om vi tror på den eller ej. Myterne flyder sammen med religioner og folkefortællinger. Og selvom få tror på dem i bogstavelig forstand, hvad enten det gælder hyldemor eller jomfrufødsler, hekse eller huldrer. Så tror vi på det, der ligger bag ordene."	"Spørgsmål:\nEr 'Johannes den hellige' et andet navn for 'Sankt Hans'?"	1	1	815	1	253	7946	6	4	4
Test	156	False	experiment	"Et ordsprog siger, at vi ikke fortæller børn historier om drager for, at de skal tro på dem, men for at de skal lære at slå dem ihjel. Eller tæmme dem. Det samme gælder ord. Og fortællinger. Da Johannes' fætter endelig trådte frem der ved floden og lod sig døbe svævede en due over ham, fint symboliserende ånde. Og det er måske netop ånd, der skaber fællesskabet. Forbindelsen mellem os. Den, der ligger bag ordene, traditionerne, festerne, højtiderne. Traditioner uden ånd er glædesløse. Derfor er denne tradition særlig smuk. For den forbinder det hele. Lyset. Fortællingerne. Myterne. Glæden. Og freden. Om det at året går sin gang. Og at vi har nogen indbyggede, traditionsbundne milepæle, der markerer dette."	"NO QUESTION"	NA	.	-1	-1	456	7946	7	4	4
Test	157	False	experiment	"For det sjove er vel egentlig også, at i aften tænker vi ikke på alt det, der skete de foregående 12 måneder siden sidste sommer. Nej, vi træder nærmest ind i en magisk stund. Hvor i går og i forgårs er forsvundet. Og at vi tænker på sidste års bålaften. Vi ophæver den kontinuerlige, lineære måde at se verden på. Hvor vi midt i alle vores praktiske gøremål – måler tiden et stykke efter et andet. Alt dette bliver for en stund ophævet."	"NO QUESTION"	NA	.	-1	-1	471	7946	8	4	4
Test	158	False	experiment	"Og vi træder ind i årshjulets cirkulære rytme. For vi giver pokker i januars måneds lommesmerter og februars tristesse. Marts måneds tunge regn. Og april måneds forårsbebudning. Netop i aften er vi bare. Og vi lader tankerne gå mod alle de andre midsommeraftner. Fuldt af skønheden og nybrud. Fuld af forventninger, og vi kan på en aften som i aften næsten høre mosekonen brygge. Og føle, hvordan hyldeblomsten beruser os."	"NO QUESTION"	NA	.	-1	-1	308	7946	9	4	4
Test	159	False	experiment	"Og hvad er det så for noget, vi tænker på? I har sikkert hver især jeres egne traditioner, som I har været en del af, inden i kommet her. I mit barndomshjem var det sådan, at lige så meget som julen var en familiær begivenhed, så var midsommer der, hvor de mødtes med den udvidede familie. Altså alle de venner, vi børn, vi så komme tit og tæt i barndomshjemmet."	"NO QUESTION"	NA	.	-1	-1	306	7946	10	4	4
Test	160	False	experiment	"Så var man nemlig sammen med den selvvalgte familie. Og der fejrede de voksne hele aftenen det fælleskab, de havde etableret med hinanden mens vi unger legede. Og glædede os helt sindssygt til, at vi skulle være længe oppe. Og vi skulle se bål ... for efter mad og leg, så var det dét, vi skulle, vi skulle se bål. Og vi var sammen om det. Og da jeg blev ældre, søgte jeg selv mod mine egne selvetablerede fællesskaber. Ligesom I har gjort. Og ve den, som sad alene på sankthansaften."	"NO QUESTION"	NA	.	-1	-1	245	7946	11	4	4
Test	161	False	experiment	"Som halvkikset teenager bestod en af årets udfordringer altid i at sørge for, at man var med i en flok på nytårsaften og så på midsommeraften. Og netop de aftener er nogen af de aftener og nætter, der for den, der ikke har et fælleskab, kan virke som uendelige. At sidde der alene og tælle sekunderne. Velvidende, at man ikke har en at holde i hånden, når bålet tændes. Ikke en af se smile. Og glæde sig med. Og det er en aften, hvor vi i vore voksne fælleskaber ofte prøver at huske at tage dem, der står udenfor et fælleskab med."	"NO QUESTION"	NA	.	-1	-1	308	7946	12	4	4
Test	162	False	experiment	"Vi inviterer lige naboen med ind – om ikke andet – så for en kort stund. For vi kan vel ikke glædes. Hvis vi ikke har nogen at glæde os sammen med. Vi kan ikke nyde flammerne fra bålet. Og de lyse nætter, hvis vi ikke kan føre en samtale. Nyde stilheden sammen med et andet menneske, der står os nært. For netop dermed bliver vi frie. Vi bliver frie for ensomhedens trange kår. Og oplever den frihed, det at give og modtage sommerens varme kærlige kys på kinden, er."	"NO QUESTION"	NA	.	-1	-1	1144	7946	13	4	4
Test	163	False	experiment	"Så vi skal tænde bålet. For I er kommet med jeres fælleskaber for sammen at nyde de store flammer. Og det skal I også komme til. Og det bål, vi tænder, er et samlingspunkt for fælleskabet. Det helt nære og det selvvalgte. For i aften fejrer vi de lyse nætter. Vi fejrer, at vi som de frie mennesker, vi er, er frisat gennem de venner og den familie, de fælleskaber, som er den ild, og den motor, der driver os. Så når vi om lidt tænder bålet. Så er spørgsmålet vel, om det, vi gør, ikke også er vi sætter blus på vores fælleskaber."	"NO QUESTION"	NA	.	-1	-1	4722	7946	14	4	4
Test	164	False	experiment	"Tak for ordet."	"NO QUESTION"	NA	.	-1	-1	380	7946	15	4	4
Test	165	False	experiment	"NY TALE BEGYNDER NU"	"NO QUESTION"	NA	.	-1	-1	657	18670	-1	4	4
Test	166	False	experiment	"Tak fordi jeg måtte komme. Og tak fordi I ville komme!\nAlle jer, der er til stede her i dag, har brugt tid og kræfter på at udvikle nye, bæredygtige løsninger. I har brugt jeres viden, fantasi og gode ideer til at tænke nyt og på tværs. Alt sammen med det formål at skabe en grønnere og mere bæredygtig verden. Det værdsætter jeg rigtig meget."	"NO QUESTION"	NA	.	-1	-1	349	18670	0	4	4
Test	167	False	experiment	"Vi har brug for jeres indsats. FN har defineret 17 verdensmål, der skal sætte kurs mod en mere bæredygtig udvikling – både for mennesker, og for den planet, vi bor på. En af de udfordringer, der optager mig og hele regeringen rigtig meget, det er klimaforandringerne. Og hvis vi et øjeblik forestiller os, at vi om 80 år mødes igen her på RUC – eller, at vores børnebørn og oldebørn mødes – så synes jeg, vi skylder dem at komme op med løsninger, som gør, at vi ikke behøver svømme rundt her på campus. Så vi ikke behøver ankomme her til COconference i gummibåd. Ligesom vi skylder vores børn og børnebørn, at de stadig kan gå en tur i en frodig skov. Glæde sig over lærken, der synger og drikkevand direkte fra hanen."	"NO QUESTION"	NA	.	-1	-1	243	18670	1	4	4
Test	168	False	experiment	"Det er folk som jer, der har været med til at bestemme, at det seneste folketingsvalg blev så grønt. Og jeg er glad, stolt og en lille smule ydmyg over at være en del af en regering, der tager det ansvar på os. Vi har sat os et mål om at nedbringe Danmarks udledning af CO2 med 70 procent i 2030. Det er en ambition, selv Uffe Elbæk ville kalde 'crazy'. Og sandheden er, at vi endnu ikke ved, hvordan vi når derhen."	"Spørgsmål:\nMener taleren at vælgerne har været med til at bringe klimabevidsthed på dagsordenen?"	1	1	538	1	256	18670	2	4	4
Test	169	False	experiment	"En ting er sikker; vi har brug for forskningen, hvis vi skal finde de bæredygtige løsninger. Derfor blev jeg for to uger siden enig med alle Folketingets partier om at sætte 1,5 mia. kr. af til forskning i grønne løsninger. Med aftalen sætter vi nogle overskrifter på de områder, hvor vi mener, at ny grøn forskning kan gøre gavn. Det gælder inden for landbrug, tung transport og byggeri. Og det gælder inden for arkitektur, design, natur og biodiversitet."	"NO QUESTION"	NA	.	-1	-1	310	18670	3	4	4
Test	170	False	experiment	"Og fordi vi endnu ikke ved, hvordan vi når målet, så har vi brug for forskning, som er helt fri – og drevet af forskernes egne ideer. Men vi har også brug for forskning, der udvikles i tæt samarbejde med virksomhederne og kan give svar på nogle af de konkrete udfordringer, vi står med her og nu. Med aftalen om forskningsreserven sætter vi en ny grøn retning for udviklingen af Danmark. Men penge til forskning gør det ikke alene. Vi har brug for offensive hjerner som jeres til at bringe forskningen i spil. Og vi har brug for alle de vilde, konkrete, usandsynlige, fantastiske og inspirerende ideer, I kan komme op med."	"Spørgsmål:\nEr der - ifølge taleren - brug for fri forskning?"	1	1	771	1	306	18670	4	4	4
Test	171	False	experiment	"Det gode er jo, at når man – som jer – arbejder sammen på tværs af professioner, sektorer og fag, så kommer man til at se verden med nye briller. Og det er ofte lige der – i krydsfeltet mellem forskelligheder – at de gode ideer opstår. Derfor er COchallenge et fantastisk initiativ. Her deltager både gymnasieelever, bygningskonstruktører, datamatikere, multimediedesignere, forskere, virksomheder og mange flere med hver deres faglighed og syn på verden. Det kan ikke undgå at give nye og skæve perspektiver på bæredygtigheden. Perspektiver, som vi ellers ikke kunne have forudset."	"NO QUESTION"	NA	.	-1	-1	257	18670	5	4	4
Test	172	False	experiment	"Tag bare vinderne af ARGOs COchallenge sidste år; 'Skraldepigerne', som de blev kaldt. 'Skraldepigerne' var 4 studerende fra Zealand, der gik sammen om at gøre det sjovt og attraktivt at genbruge de ting, vi andre smider ud. Ingen af de fire studerende kendte hinanden i forvejen. De kom fra tre forskellige studieretninger med tre forskellige fagligheder."	"NO QUESTION"	NA	.	-1	-1	279	18670	6	4	4
Test	173	False	experiment	"Alligevel lykkedes det Rikke, Nadia, Christina og Melisa at komme op med en løsning, ingen havde tænkt på før. Ideen var at afholde skraldefester på genbrugspladsen. For et lille entrébeløb kan man få adgang til genbrugspladsen og komme og tage, hvad man har lyst til, mens man samtidig får inspiration fra designere og håndværkere til at upcycle skraldet."	"NO QUESTION"	NA	.	-1	-1	539	18670	7	4	4
Test	174	False	experiment	"Jeg går selv ind for genbrug. Jeg blev faktisk gift i genbrug. Ikke at min mand var genbrug, men brudekjolen var. Det forbrug, vi mennesker har af tøj, er af så enorme dimensioner, at tøjindustrien er den næstmest forurenende industri i verden. Det tøj, vi ikke når at købe, bliver nogle gange brændt. Enorme bål med dyre sko, tasker og designertøj går op i røg og ender som aske. Det er næsten ikke til at bære."	"NO QUESTION"	NA	.	-1	-1	306	18670	8	4	4
Test	175	False	experiment	"Vi har kun én jordklode. Men globalt forbruger vi, som om der var 1,7 jordkloder. Det kan ikke blive ved med at gå. Derfor har vi brug for studerende som Rikke, Nadia. Christina og Melisa, der kan vende tingene på hovedet og tænke nyt. Og vi har brug for initiativer som COchallenge, der inspirerer os til, hvad vi kan gøre – både sammen og hver især - for at blive mere miljøbevidste i dagligdagen."	"Spørgsmål:\nForbruger mennesker - ifølge taleren - 3,7 gange jordens ressourcer?"	2	1	1092	0	250	18670	9	4	4
Test	176	False	experiment	"850 studerende har deltaget i forløbet her. Jeg synes, I er seje. I viser vejen. I er 'blæredygtige', som arrangørerne af konferencen kalder jer med et sjovt, nyt ord. Det samme gælder de 450 virksomheder og offentlige organisationer, der deltager. Jeg synes, det viser noget om, at der er en bevægelse i gang, som er svær at stoppe. Og samtidig er vi jo en del af en global bevægelse, hvor virksomheder, kommuner, byer og ngo'er verden over har kastet sig ind i kampen for mere bæredygtighed."	"NO QUESTION"	NA	.	-1	-1	252	18670	10	4	4
Test	177	False	experiment	"Så når I spørger jer selv, om jeres lokale initiativer nytter, så er svaret ja. For nuvel, der kan være langt fra et initiativ som skraldefester på genbrugspladsen til abstrakte verdensmål. Men hvert lille initiativ og hver lille opfindelse udgør brændstof til den bevægelse, der kan skabe forandring."	"NO QUESTION"	NA	.	-1	-1	287	18670	11	4	4
Test	178	False	experiment	"Og hvis vi gør det her rigtigt, kan vi gøre bæredygtighed til en god forretning for Danmark. Vores udvikling af bæredygtige løsninger kan være med til at flytte verden. Vi har gjort det før. For eksempel besluttede vi for mange år siden at bekæmpe vandspild og satse på bedre vandkvalitet. I dag eksporterer vi vandteknologi for milliarder. Opfindelser som vindmøllehoveder, termostater og pumper er alle sammen 'made in Denmark.' Nu har verden brug for, at vi gør det igen."	"NO QUESTION"	NA	.	-1	-1	183	18670	12	4	4
Test	179	False	experiment	"Jeg vil gerne sige tak til Roskilde Kommune, RUC og alle I andre regionale aktører, der har stillet op med viden og ressourcer i dagens anledning. I starter lokalt for at forandre globalt. Det er sådan, det skal gøres. Fremtiden er grøn. Jeres fremtid. Vores fremtid. Lad os sammen skabe den forandring, der er brug for. Rigtig god COconference."	"NO QUESTION"	NA	.	-1	-1	203	18670	13	4	4
Test	180	False	experiment	"NY TALE BEGYNDER NU"	"NO QUESTION"	NA	.	-1	-1	392	22811	-1	1	1
Test	181	False	experiment	"Fru minister, kære allesammen\nTusinde tak for, at I er mødt op i dag for at markere den internationale dag mod homo-, bi- og transfobi! Over hele kloden markeres dagen med tusindvis af arrangementer, som skal sætte fokus på de udfordringer, vi møder som en af de minoriteter i verden, som udsættes for mest forfølgelse og uretfærdighed."	"NO QUESTION"	NA	.	-1	-1	462	22811	0	1	1
Test	182	False	experiment	"Det er en dag, som maner til sammenhold – sammenhold inden for hele gruppen af LGBTQI osv. Og til sammenhold, uanset hvilken geografisk, etnisk eller religiøs gruppe vi tilhører. Hvis LGBTQI-personer udgjorde en nation, ville vi være klodens tredje mest folkerige. Nu forholder det sig imidlertid sådan, at vi lever spredt over hele kloden – under vidt forskellige forudsætninger for at stå frem, kæmpe og frigøre os fra undertrykkelse. "	"NO QUESTION"	NA	.	-1	-1	370	22811	1	1	1
Test	183	False	experiment	"Som vores demonstration her i dag meget grafisk illustrerer, så er der endnu 80 lande på jorden, hvor det at leve med en seksualitet eller kønsidentitet, som afviger fra flertallets, er strafbart – fra bøder til dødsstraf."	"NO QUESTION"	NA	.	-1	-1	299	22811	2	1	1
Test	184	False	experiment	"Det er også derfor, vi står her i dag – for at huske på alle dem, som ikke ville kunne gøre tilsvarende i deres lande – af frygt for alvorlige repressalier – for at give dem stemme – for at huske på dem og for at lægge pres på vore politikere, så de tager LGBTQI-rettigheder op HVER gang, der er lejlighed til at gøre det – og uanset overfor hvem."	"Spørgsmål:\nEr det i alle lande risikofrit at tale højt om LGBTQI-rettigheder?"	2	1	137	0	356	22811	3	1	1
Test	185	False	experiment	"Vi skal ikke vige tilbage for at tale uretten midt imod. Og vi skal ikke relativere rettigheder. Om man er født i Kampala, Kathmandu, Cayenne eller København – så har man lige megen ret til at elske og leve i overensstemmelse med sig selv."	"NO QUESTION"	NA	.	-1	-1	955	22811	4	1	1
Test	186	False	experiment	"Vi skal også bruge dagen til at minde os om, hvad vores eget sammenhold betyder – som LGBTQI-personer i Danmark 2016. Til at minde os om, at hvis vi ikke kæmper for alles ret i hele LGBTQI-familien – så taber vi også kollektivt kampen."	"NO QUESTION"	NA	.	-1	-1	2324	22811	5	1	1
Test	187	False	experiment	"I de sidste måneder har vi som organisationer – bl.a. de 4 organisationer, som står bag dagens demonstration – Sabaah, LGBT Danmark, Amnesty International og Copenhagen Pride – sammen med stærke transaktivister kæmpet den vigtige kamp for, at transpersoner i Danmark – og internationalt – fjernes fra listen over psykiske sygdomme. Alt tyder nu på, at denne kamp bærer frugt, og at det er lykkedes os at overbevise politikerne om, at Danmark skal gå forrest i verden på dette spørgsmål, og at det som i 1981, da det handlede om at fjernet homoseksuelle fra samme liste, betaler sig at vise verden vejen frem for at vente på WHO. "	"NO QUESTION"	NA	.	-1	-1	1713	22811	6	1	1
Test	188	False	experiment	"Det er vi glade for at have været med til at få til at lykkes – og det er lykkedes, fordi vi har stået bag hinanden og bakket hverandres kamp op. Sådan er vi stærke – for åben dialog og enighed i mål gør stærk."	"NO QUESTION"	NA	.	-1	-1	257	22811	7	1	1
Test	189	False	experiment	"Kampen er ikke slut – nu skal vi bevare presset på den politiske proces, så transpersoner omsider får retten til egen krop og til at kunne bestemme over egen behandling – vi ønsker, at der indføres informeret samtykke i sundhedssystemet for transpersoner – ligesom for ALLE ANDRE DANSKERE, og vi ønsker, at der ændres i Sundhedsstyrelsens vejledning, så Sexologisk kliniks monopol brydes, og der igen indføres mulighed for, at transpersoner kan gå til en privatpraktiserende læge eller gynækolog for at få udskrevet de hormoner, de har brug for. "	"NO QUESTION"	NA	.	-1	-1	459	22811	8	1	1
Test	190	False	experiment	"Transpersoner skal sættes fri – som selvstændige, myndige aktører i egne liv. Væk med umyndiggørelsen og formynderiet – det er uværdigt – det er umenneskeligt. Vi kan ikke finde os i det!!"	"NO QUESTION"	NA	.	-1	-1	302	22811	9	1	1
Test	191	False	experiment	"Og det kan lade sig gøre. Hvis der er EN ting, der står tilbage fra sidste uges IDAHOT-forum i København, så er det den maltesiske minister for borgerrettigheder, sociale anliggender og forbrugerspørgsmål, Helena Dallis, svar på spørgsmålet: 'Hvad skal der til for at skabe forandring?'"	"NO QUESTION"	NA	.	-1	-1	1463	22811	10	1	1
Test	192	False	experiment	"Det skal lige siges, at den maltesiske regering på 3 år har ændret 85 forskellige lovkomplekser for at gøre dem mere homo-, bi-, trans- og intersex-inkluderende, hvilket har ført til, at det stærkt katolske Malta nu iflg. ILGA er langt det førende land i verden, når det gælder sikring af vore borgerrettigheder. Da de indledte arbejdet, var 80 % af befolkningen imod bedre rettigheder for LGBTQI-personer – nu, 3 år senere, er 80 % af befolkningen for."	"NO QUESTION"	NA	.	-1	-1	400	22811	11	1	1
Test	193	False	experiment	"På spørgsmålet: 'Hvad skal der til for at skabe forandring?', svarede Helena Dalli: 'Two words: Political will!' Så let er det. Der skal vilje til – og mod! Politisk mod til ikke at lave politik efter meningsmålinger, men i forhold til, hvad man anser for at være rigtigt og retfærdigt, tilføjede hun."	"NO QUESTION"	NA	.	-1	-1	3910	22811	12	1	1
Test	194	False	experiment	"Så lad en opfordring til danske politikere lyde her fra Rådhuspladsen i dag: Gå forrest! Lad os skabe en revolution i fællesskab, hvor de sidste rester af LGBTQI-diskrimination endegyldigt fjernes fra dansk lovgivning. Sæt et arbejde i gang som det maltesiske, hvor lovgivningen systematisk granskes for uretfærdigheder, og lad disse blive fjernet – og nedsæt et råd af civilsamfundsorganisationer fra LGBTQI-miljøet til at rådgive jer om, hvordan man skaber ægte inkluderende lovgivning."	"Spørgsmål:\nMener taleren at LGBTQI-personer pt. diskrimineres af den danske lovgivning?"	1	1	5905	1	22	22811	13	1	1
Test	195	False	experiment	"Vi husker, hvem der er med os, og hvem der går imod! Som Martin Luther King Jr. engang sagde: 'In the end, we remember not the words of our enemies, but the silence of our friends.'"	"NO QUESTION"	NA	.	-1	-1	525	22811	14	1	1
Test	196	False	experiment	"Under sidste uges konference opfordrede de forsamlede politikere civilsamfundsorganisationerne til at være deres vagthunde – til at gøre dem opmærksomme på uretfærdigheder og til at være deres kritikere, når tingene ikke bevæger sig hurtigt nok frem. Det vil vi gerne – tak for invitationen. Men det forudsætter to afgørende ting:"	"Spørgsmål:\nOpfordrede politikerne i sidste uge civilsamfundsorganisationerne til at være deres vagthunde?"	1	1	730	1	497	22811	15	1	1
Test	197	False	experiment	"Den ene er, at I politikere sikrer, at vi har fornuftige forhold at arbejde under. I kan ikke på den ene side pålægge os det kollektive ansvar for på samfundets vegne at løfte denne opgave, og så samtidig ikke ville lægge midler til dette arbejde. Vi tre store organisationer, som står som arrangører her i dag, kan ikke i fællesskab mønstre én fuldtidsmedarbejder. "	"NO QUESTION"	NA	.	-1	-1	432	22811	16	1	1
Test	198	False	experiment	"Alle er vi 100 % frivilligt drevet – og vi knokler for at skabe de resultater og den viden, I efterspørger. Men hvis I vil flytte det her område, som I siger, og hvis I vil basere jer på viden og fakta – så kræver det, at vi kan levere det – og det forudsætter altså, at man sætter midler af til indsamling af disse fakta."	"NO QUESTION"	NA	.	-1	-1	261	22811	17	1	1
Test	199	False	experiment	"Vi KAN ikke gøre det selv!!"	"NO QUESTION"	NA	.	-1	-1	540	22811	18	1	1
Test	200	False	experiment	"Det andet er, at I skal lytte, når vi taler med jer. Hør på og anerkend, hvilke problematikker og udfordringer vi lægger frem for jer – og stol på, at vi nok har ret, når vi påpeger dem. Undlad at negligere eller bagatellisere ting, der ikke influerer jer selv personligt."	"NO QUESTION"	NA	.	-1	-1	315	22811	19	1	1
Test	201	False	experiment	"Tag som udgangspunkt, at vi ved, hvad vi taler om, og at når vi kommer med en problematik – så er det en, som bør løses – gennem politisk vilje og med politisk mod. Det er budskabet fra i dag! Støt os! Lyt til os! Brug os! Sammen kan vi skabe en bedre verden for LGBTQI-personer overalt. Og en sådan verden er en bedre verden for hele menneskeheden!"	"NO QUESTION"	NA	.	-1	-1	398	22811	20	1	1
Test	202	False	experiment	"Tak for ordet, og tak til jer alle, fordi I kom i dag."	"NO QUESTION"	NA	.	-1	-1	1873	22811	21	1	1
Test	203	False	experiment	"NY TALE BEGYNDER NU"	"NO QUESTION"	NA	.	-1	-1	2824	26682	-1	1	1
Test	204	False	experiment	"Kære studenter\nEt stort tillykke med jeres eksamen. I sidder nu her, som så mange før jer har gjort. I har med hårdt slid taget jeres studentereksamen, proppet jeres hoveder med viden og nu fortjener I at blive fejret. Nogle af jer ser måske også lidt trætte ud, men det skyldes måske ikke kun det hårde, faglige arbejde."	"NO QUESTION"	NA	.	-1	-1	2810	26682	0	1	1
Test	205	False	experiment	"I har været igennem 12-13 års skolegang hvor det meste har været lagt til rette for jer. Nu skal I til at bruge jeres viden, i første omgang til at vælge hvilken retning jeres tilværelse skal tage. For de fleste af jer er det nok første gang nogensinde, at der ikke er et oplagt valg for hvad I skal efter sommerferien."	"NO QUESTION"	NA	.	-1	-1	2368	26682	1	1	1
Test	206	False	experiment	"I bliver presset af ungdomsarbejdsløshed og Folketinget presser jer med fx SU-reform til at gå hurtigt i gang med videregående studier. Jeg håber, I føler, at vi har klædt jer godt på i løbet af jeres tre år på VK, så I har den viden og de kompetencer, der kræves for at træffe en god beslutning for jeres videre færd."	"NO QUESTION"	NA	.	-1	-1	747	26682	2	1	1
Test	207	False	experiment	"Men viden - hvad er det egentlig, hvad vil det sige at vide noget og kunne noget her i 2013? Jeres bedsteforældres generation skulle lære kongerækken udenad, remser med Europas floder og byer, ja sågar salmevers. Jeg ved ikke hvor stærke I er i kongerækken – I er næppe blevet hørt i det, men for jer er viden noget andet. I lærer mindre udenad og det skyldes nok først og fremmest, at I er meget bevidste om, hvor let I har ved at slå faktuel viden op. Man kan let føle, at man ved alt, hvad internettet ved. Bare man har en smartphone, iPad eller computer, så kan man slå det op."	"NO QUESTION"	NA	.	-1	-1	270	26682	3	1	1
Test	208	False	experiment	"De fleste af jer kender den situation, at læreren har stillet et spørgsmål. I selv eller en af kammeraterne har hurtigt googlet det og har fundet svaret, rakt hånden op og har svaret korrekt på lærerens spørgsmål. Man kan betragte den situation på flere måder: Snød I læreren? eller snød I jer selv? Eller var det i virkeligheden en rigtig fornuftig måde at løse opgaven på? "	"NO QUESTION"	NA	.	-1	-1	481	26682	4	1	1
Test	209	False	experiment	"Professor i psykologi ved Harvard University Daniel M. Wegner har skrevet en artikel med titlen 'Don’t fear the cybermind'. Hans siger altså, at vi ikke skal frygte det han kalder Cybermind. Han anbefaler, at vi accepterer internettet som en hukommelsesudvidelse og forstår, at grænsen mellem vores egen bevidsthed og internettet bliver mere og mere flydende."	"NO QUESTION"	NA	.	-1	-1	205	26682	5	1	1
Test	210	False	experiment	"I virkeligheden er den måde at arbejde på karakteristisk for mennesket også uafhængigt af internettet. Vi mennesker lever sammen i grupper og netværk, hvor vi støtter hinanden med vores forskellige kompetencer eksempelvis vores forskellige viden. Nogen af jer kender måske den situation hjemmefra, at hvis man skal vide noget om familiens fødselsdage så går man til et familiemedlem, skal man vide noget om bilen så er det et andet familiemedlem man går til. Der er ikke én person i gruppen som ved det hele, men tilsammen ved de rigtig meget.  "	"NO QUESTION"	NA	.	-1	-1	476	26682	6	1	1
Test	211	False	experiment	"På den måde er internettet blot en teknisk udvidelse af den måde at samarbejde og videndele på. Vi er alle blevet en del af et stort cybermind. Så længe vi er forbundet til vores maskiner gennem snak og tastetryk, kan vi alle være en del af det største og smarteste sind nogensinde. Det er kun, når vi er fanget i et øjeblik uden vores net-forbindelse, at vi vender tilbage til vores egen beskedne hukommelse. Og det sker efterhånden sjældnere og sjældnere."	"NO QUESTION"	NA	.	-1	-1	368	26682	7	1	1
Test	212	False	experiment	"I har lige som den første årgang været igennem en eksamensperiode med adgang til internettet, men dog med en masse restriktioner og begrænsninger: krav om at I ikke måtte kommunikere og dermed heller ikke søge på internettet og så mister internettet jo en stor del af sin værdi. Men man arbejder i øjeblikket på at justere eksamensformerne, så gad vide om ikke man om få år kan benytte internettets muligheder fuldt ud – også til eksamen."	"NO QUESTION"	NA	.	-1	-1	507	26682	8	1	1
Test	213	False	experiment	"Internettet har eksisteret i hele jeres levetid. De sociale medier såsom Facebook og YouTube har eksisteret siden I var 10-12 år gamle. Det gør jer i den grad til superbrugere og det giver jer en masse muligheder og fordele, men der er et par faldgruber som I bør være opmærksomme på:"	"NO QUESTION"	NA	.	-1	-1	1611	26682	9	1	1
Test	214	False	experiment	"Plagiat. Det er blevet meget let - man finder et eller andet tilsyneladende brugbart på internettet, kopierer og indsætter. Umiddelbart er det positivt. Andres viden bliver brugt og kommer til at indgå som viden hos endnu flere. Det foregår også professionelt, der dukker jævnligt sager op om litterært plagiat eller forskningsmæssigt plagiat."	"NO QUESTION"	NA	.	-1	-1	3283	26682	10	1	1
Test	215	False	experiment	"'Der er mange mennesker, der kommer til et livsresultat ligesom skoledrenge; de snyder ved at skrive facit ud af regnebogen uden selv at have regnet stykket'. Den sætning er plagiat fra min side. Det er ikke mig, der har formuleret det. Æren tilskrives den danske filosof Søren Kierkegaard. Det er i orden at benytte noget som andre har formuleret, når bare man ærligt siger, hvor man har det fra. Kierkegaard påstår her, at mange mennesker finder en vej igennem livet uden selv at have lavet mellemregningerne og dermed uden at have en dybere forståelse."	"NO QUESTION"	NA	.	-1	-1	1083	26682	11	1	1
Test	216	False	experiment	"Jeg vil i forlængelse heraf kommentere en anden mulig faldgrube ved at vende tilbage til noget af det jeg sagde tidligere: hvad var det som jeres bedsteforældre fik ud af at lære så meget udenad? De fik opbygget nogle tankestrukturer som gjorde dem i stand til at forstå, analysere og fortolke diverse input. Hvis de stødte på et årstal, vidste de med det samme en hel masse om samfundet på det pågældende tidspunkt ud fra en viden om hvilken konge som regerede. "	"NO QUESTION"	NA	.	-1	-1	2805	26682	12	1	1
Test	217	False	experiment	"Det er vigtigt for jer, at I fortsat opbygger en base af viden for selvom det er blevet lettere at slå faktuel viden op på internettet, så er det nødvendigt, at I har et skelet at hænge den viden op på. Så hvis I besvarer lærerens spørgsmål ved at slå svaret op på Google, så er det i orden, hvis I selv forstår svaret og kan forholde jer til det, men hvis I blot videregiver det som papegøjer, så fungerer det ikke, og I snyder jer selv. Det gælder ikke kun i gymnasiet og i skoleverdenen, men også i det samfund I skal ud i bagefter."	"NO QUESTION"	NA	.	-1	-1	2462	26682	13	1	1
Test	218	False	experiment	"Jeg citerede for lidt siden Kierkegaard og da det i år er 200 år siden hans fødsel vil jeg dvæle lidt ved ham. Hvad husker vi Kierkegaard for i dag, hvad kan vi bruge ham til? Kierkegaard var optaget af individet. Han opfordrer individet til at træde i karakter blive synlig. Menneske er ikke noget man er, men noget man bliver igennem de valg man træffer."	"NO QUESTION"	NA	.	-1	-1	119	26682	14	1	1
Test	219	False	experiment	"Kierkegaard har fyldt meget i medierne her i 2013. Eksempelvis har Kulturredaktør på Berlingske Jesper Beinov skrevet følgende: 'Kierkegaards arv handler, for mig at se, om, at det frie valg er det moderne menneskes vilkår samtidig med at man er forpligtet på næsten. Ingen tvinger os i dag til bestemte livsvalg. Vi kan vælge at overtage det nedarvede, det overleverede, eller vi kan vælge at forkaste det. Så længe vi ikke skader andre, men lidenskabeligt og oprigtigt vælger og vedstår os vores valg, er der ingen som anfægter vores ret til dette'"	"Spørgsmål:\nMener taleren at Kierkegaard stadig er aktuel i medierne?"	1	1	5162	1	997	26682	15	1	1
Test	220	False	experiment	"I står overfor at skulle træffe valg for jeres liv og der er et utal af muligheder: I kan fortsætte med at studere til august, og hvis I gør det, har I alle mange forskellige studier at vælge imellem. Eller I kan holde et eller flere sabbatår for at tjene penge, eller for at tage på højskole, tage ud at rejse. Der er virkelig mange muligheder. Nogle af jer vil nok også opleve, at man ikke altid kan gå den korteste og mest lige vej. Man ved aldrig hvilke muligheder og forhindringer, der dukker op. "	"NO QUESTION"	NA	.	-1	-1	377	26682	16	1	1
Test	221	False	experiment	"Folketinget presser jer til at gå hurtigt i gang. For nogle af jer vil det være det rigtige valg – for andre kan det være bedre med en pause. Der findes ikke en facitliste med rigtige valg eller forkerte valg. Men jeg tror på værdien af at tage de valg man træffer alvorligt. Hvis ikke man har en plan, så har man ikke noget at afvige fra. Så risikerer man at flyde med strømmen som en korkprop i en bæk."	"Spørgsmål:\nMener taleren at det er positivt hvis studenterne flyder med strømmen?"	2	1	430	0	643	26682	17	1	1
Test	222	False	experiment	"Nu har jeg talt om individets frie valg. Frihed er en helt central værdi for os danskere, men en anden lige så vigtig værdi er individualismens modstykke: fællesskab. Og hermed vil jeg forlade Kierkegaard, for når det drejer sig om fællesskab er det ikke Kierkegaard, man skal lytte til."	"NO QUESTION"	NA	.	-1	-1	2626	26682	18	1	1
Test	223	False	experiment	"Jeg har ved samtaler med mange af jer fornemmet hvor meget fællesskabet betyder for jer, både fællesskabet i klassen, på årgangen og på tværs af årgangene – VK-fællesskabet. I har ikke alle haft lige gode vilkår for at deltage i fællesskabet – her tænker jeg specielt på ITX-klassen. "	"NO QUESTION"	NA	.	-1	-1	1894	26682	19	1	1
Test	224	False	experiment	"Vi dimitterer i år den første ITX-klasse. I har dels haft nogle HTX-fag fra Mercantec og nogle STX-fag fra VK og så har i idrætten til fælles. I har været i den helt særlige situation, at I to dage om ugen har været på Mercantec og tre dage om ugen her på VK. Det har selvfølgelig nogle gange gjort det vanskeligt for jer at føle tilhørsforhold både til den ene og den anden skole. Men i dag dimitterer jeg jer herfra og understreger hermed, at I er og altid vil være en del af VK’s årgang 2013."	"NO QUESTION"	NA	.	-1	-1	527	26682	20	1	1
Test	225	False	experiment	"Og til hele årgangen vil jeg sige, at I har bidraget. Nogle mest i arbejdet på klassen, og andre i det store fællesskab. Det er helt afgørende for at få den nødvendige sammenhængskraft på skolen. Også for samfundet er det vigtigt, at det består af borgere, der er bevidste om deres pligter og moralske ansvar. Den danske filosof og læge \nKlemens Kappel har sagt:"	"NO QUESTION"	NA	.	-1	-1	277	26682	21	1	1
Test	226	False	experiment	"Vi er villige til at handle moralsk (også når det ikke umiddelbart gavner os selv), men kun så længe vi kan konstatere, at andre også gør det. Hvis man ser, at andre ikke yder deres til et moralsk projekt, så mister man selv sin motivation til at yde sit."	"NO QUESTION"	NA	.	-1	-1	334	26682	22	1	1
Test	227	False	experiment	"For at bevare et samfund, som vi alle ønsker at leve i, er den enkelte således nødt til at handle moralsk og yde sit til fællesskabet, ellers falder fællesskabet fra hinanden og sammenhængskraften forsvinder. Det gælder både i det nære og det lidt fjernere. Så lad være med at snyde i skat og tilran jer ikke fordele, I ikke er berettiget til. Gør ikke på jeres arbejdsplads kun det, I skal. Gør også det, der er nødvendigt og engagér jer."	"Spørgsmål:\nOpfordrer taleren tilhørerne til at handle mere egennyttigt?"	2	1	2664	0	22	26682	23	1	1
Test	228	False	experiment	"I har som enkeltindivider og som årgang formået at engagere jer. fx via Senatet, med musicalen Tusindårsfornemmelser, Dansk Røde Kors indsamling, Novus, Radio WadUp, morgensamlinger, café, Minerva etc. På den måde har I bidraget positivt til fællesskabet her på skolen. Fællesskaberne begynder med familie og venner, går via arbejdspladsen og lokalsamfundet til hele Danmark for til sidst at ende med hele verden. Hvis synsvinklen kun er ens egen snævre, får vi en verden, som de fleste vil have det dårligt i. Det er dog vigtigt at begynde med det nære. Magter man ikke det, kan man heller ikke frelse verden."	"Spørgsmål:\nHar skolens elever opført Tusindårsfornemmelser?"	1	1	5381	1	3064	26682	24	1	1
Test	229	False	experiment	"Jeg har givet jer nogle gode råd: Først det ret konkrete at udnytte de fordele som jeres generation har, for brug af det som Daniel M. Wegner kalder cybermind.\nMen gør det kritisk og med høj moral. Det er fint at benytte internettets muligheder til netværksdannelse og videndeling, men I skal sørge for konstant at udvide jeres eget skelet af viden, ellers risikerer I, at det bliver plagiat og papegøjesnak."	"NO QUESTION"	NA	.	-1	-1	230	26682	25	1	1
