Session_Name_	Trial_Index_	Trial_Recycled_	condition	text	question	expected_key	QUESTION_KEY_PRESSED	QUESTION_RT	QUESTION_ACCURACY	SENTENCE_RT	speechid	paragraphid	counterbalance	LAST_COUNTERBALANCE
Test	1	False	practice	"NY TALE BEGYNDER NU"	"NO QUESTION"	NA	.	-1	-1	1778	1327	-1	0	0
Test	2	False	practice	"Hej alle sammen!"	"NO QUESTION"	NA	.	-1	-1	549	1327	0	0	0
Test	3	False	practice	"Som I allerede ved, vil vi om lidt tænde for et bål, der vil brænde et skab af – det skab, vi har følt os begrænset af, indelukket i, og som de fleste af os er brudt ud af for at kunne blive lykkeligere."	"NO QUESTION"	NA	.	-1	-1	376	1327	1	0	0
Test	4	False	practice	"'Men skabe er da ganske praktiske til opbevaring af mangt og meget, ikke sandt?' Jo, opbevaring af værdier, det er rigtigt – men når vi først begynder at sætte spørgsmålstegn ved disse værdier, så føles skabet mere og mere trangt, for det kan ikke rumme vores ideer og følelser mere."	"NO QUESTION"	NA	.	-1	-1	260	1327	2	0	0
Test	5	False	practice	"'Jamen hvad er der i det skab?' Der er en opfattelse af at kvinder og mænd skal tænke, føle, klæde sig og handle forskelligt – fordi nogle er kvinder og andre er mænd. Kønsroller kalder vi det. Men det rækker faktisk meget længere end bare til roller, vi spiller – rollerne invaderer vores tanker og vores følelser, så vi næsten ikke kan tænke uden for rollen, så længe skabet omslutter os, og i hvert fald først og fremmest føler vi må tage hensyn til dem, der er i skabet..."	"Spørgsmål:\nMener taleren at kønsroller både påvirker hvordan vi handler og tænker?"	1	1	1074	1	1802	1327	3	0	0
Test	6	False	practice	"Når vi endelig bryder ud af skabet og for alvor viser og siger det, der ikke passer i det normative skab, kan vi godt opleve negative reaktioner – men så sandelig også positive – for vi er jo slet ikke alene!"	"NO QUESTION"	NA	.	-1	-1	581	1327	4	0	0
Test	7	False	practice	"Der er nemlig andre som ligner os mere eller mindre, vi er en broget og mangfoldig flok i alle aldre, hudfarver, kulturelle baggrunde, med og uden handicap, med og uden tro, af forskellig politisk overbevisning, og – vigtigst for os her: af flere forskellige kønsidentiteter og seksuelle orienteringer."	"NO QUESTION"	NA	.	-1	-1	300	1327	5	0	0
Test	8	False	practice	"Fælles for os er, at vi er en regnbueminoritet i forhold til flertallets skab – men det betyder ikke at majoriteten har ret. Vi vil udefra informere om, at der er andre måder at se tingene på, tilbyde et alternativt syn på livet og verden, som kan hjælpe nogle – især børn og unge – ud af et skab, de mistrives i."	"Spørgsmål:\nMener taleren at minoriteter bør tie med deres verdenssyn?"	2	1	3628	0	1743	1327	6	0	0
Test	9	False	practice	"Lad os brænde skabet med normerne, så vi frigøres fra dem og får retten til at være dem, vi faktisk er!"	"NO QUESTION"	NA	.	-1	-1	1069	1327	7	0	0
Test	10	False	experiment	"NY TALE BEGYNDER NU"	"NO QUESTION"	NA	.	-1	-1	579	1165	-1	9	9
Test	11	False	experiment	"Denne her tale er til alle jer derude, der ligesom mig, er ulykkelige og dybt forgældede. Det er Sankt Hans, om lidt skal vi brænde en heks af, forestil jer at det var jeres gæld der blev brændt af, eller jeres dårlige vaner og triste minder. Forestil jer at man én gang om året kunne tage en pose med rudekuverter og dårlige vaner med sig ned på sletten eller stranden eller hvor det nærmeste bål nu er, og kaste det i flammerne. Forestil jer at der var en anden verden, uden alle jeres problemer, som man kunne træde over i, vupti, så var alt det forfærdelige væk."	"Spørgsmål:\nFøler taleren ubehag ved rudekuverter?"	1	1	587	1	341	1165	0	9	9
Test	12	False	experiment	"Jeg har én episode, eller man kunne kalde det en periode i mit liv, jeg som det første ville se at komme af med. Da jeg var yngre løj jeg mig til at være læge. Det gør jeg ikke længere. Jeg havde en dum, dum oplevelse i mine tyvere hvor jeg mødte en sød pige og ikke blot løj mig ældre, men også til at være på niende semester. Det virkede. Jeg ville have hendes opmærksomhed og jeg fik den. Det var ligesom at spille kvartfinale til et EM i fodbold: hvis man er bagud til sidst, så ofrer man alt, uanset om det så koster et gult kort. Hvis det så til gengæld lykkes, og man havde et gult i forvejen, ja, så er man slet ikke med i næste kamp, hvilket jo kan føles ekstremt uretfærdigt."	"NO QUESTION"	NA	.	-1	-1	190	1165	1	9	9
Test	13	False	experiment	"Sådan gik det for mig, for ikke nok med at jeg fik hendes opmærksomhed, jeg fik også en date og en mere og jeg fik aldrig helt fortalt hende at jeg slet ikke var læge, men på dagpenge. Og selvfølgelig skete det værste, der overhovedet kunne ske, på vores, ja måske var kun den femte date. Vi havde spadseret rundt om søerne, hånd i hånd, det hele føltes perfekt, jeg elskede hende virkelig højt og hun elskede mig, og vi gik mod Fælledparken hvor der skulle være det store sankthansbål og vi gik helt tæt sammen, imens vi nærmede os en lille flok mennesker der stod midt på stien."	"NO QUESTION"	NA	.	-1	-1	295	1165	2	9	9
Test	14	False	experiment	"Vi skulle selvfølgelig møve os ind imellem dem, men det var ikke en tryllekunstner som jeg havde forventet. Der lå en ung mand i løbetøj på jorden og tog sig til hjertet imens han hev efter vejret. Jeg behøvede ikke at vente på at min kæreste skubbede mig frem til ham, jeg vidste hvad der ventede mig, og jeg vidste at jeg ikke ville miste hende. Det var ligesom at stå overfor et barn i en kanal: man tager ikke hjem og finder badebukserne frem først. Så jeg satte mig på hug ved manden og vendte ham om på ryggen."	"NO QUESTION"	NA	.	-1	-1	19	1165	3	9	9
Test	15	False	experiment	"Jeg kunne høre min kæreste lyve for mig. 'Han er læge', sagde hun, selvom hun udmærket godt vidste at jeg kun gik på niende semester. Og jeg gav ham hjertemassage og tjekkede hans puls og jeg nikkede indforstået til ambulancefolkene da de ankom."	"NO QUESTION"	NA	.	-1	-1	590	1165	4	9	9
Test	16	False	experiment	"Og min kæreste var så stolt, da vi gik derfra, arm i arm. Jeg var bare rystet og i chok, og jeg vidste, at nu var der ingen vej tilbage. Hvis jeg ville fortsætte forholdet, og fortsætte med at være lykkelig, måtte jeg forlade den ene verden og alt hvad den indeholdt af familie og venner, og kun leve i den verden hvor den mig, som hun havde forelsket sig i, levede. Og jeg vidste også at det var umuligt, at jeg jo ikke gik til forelæsninger på Panum, men i stedet gik på biblioteket for at læse tegneserier og aviser, når vi kyssede hinanden farvel om morgenen."	"NO QUESTION"	NA	.	-1	-1	242	1165	5	9	9
Test	17	False	experiment	"Jeg bliver stadig utilpas når jeg tænker på ham løberen og jeg kan mærke hans brystkasse i mine hænder. Og jeg ville ønske at jeg kunne smide den følelse på bålet."	"NO QUESTION"	NA	.	-1	-1	281	1165	6	9	9
Test	18	False	experiment	"Har I prøvet at cykle hurtigt imens I hører noget musik I virkelig godt kan lide? Man kan blive helt høj af det. Man kommer simpelthen et andet sted hen, hvor der ikke er nogen regninger eller dårlige minder der presser sig på. Og nu tænker I: 'shit, han er ude i noget nyreligiøst pjat', men hvorfor lukke ned bare fordi det lugter af overtro? Vi skal alle sammen sætte ild til et bål i aften hvor der står en heks på toppen. Hvis det ikke er en anden verden, så ved jeg ikke hvad det er."	"Spørgsmål:\nKan taleren forestille sig en bedre verden end sin egen virkelighed?"	1	1	708	1	20	1165	7	9	9
Test	19	False	experiment	"Det jeg bare prøver at sige er, at der findes mange forskellige verdener og at vi selv vælger hvilken vi vil leve i. Jeg valgte engang at være læge og måtte tage konsekvenserne. I har valgt at leve i en verden hvor I kun er lykkelige hvis I er gældfri og slanke og har gode jobs. Og I tager konsekvenserne hver dag i form af sorg, ulykke og ondt i maven. Jeg kunne have fået pigen, hvis jeg var læge. Men det er jeg ikke. Jeg kunne måske have fået hende alligevel, hvis jeg havde været ærlig og sagt at jeg ikke havde noget job. Vi kunne måske alle sammen være lykkelige, hvis vi var rige og gældfri. Men det er vi ikke. "	"NO QUESTION"	NA	.	-1	-1	2917	1165	8	9	9
Test	20	False	experiment	"Vi sidder i gæld til halsen med klimakriser og finanskriser og inkompetente politikere og voksne der vil være børn og store, væmmelige firmaer, der ejer vores kroppe og sjæle. Den verden, vi prøver at bilde os selv ind at vi lever i, eksisterer ikke, og kommer heller aldrig til det. Jeg bliver aldrig læge. Jeg ved ikke engang hvor pigen er i dag. Vi bliver aldrig gældfrie og perfekte, og vi ved ikke engang hvordan det ville være."	"NO QUESTION"	NA	.	-1	-1	7557	1165	9	9	9
Test	21	False	experiment	"Faktisk er det ikke helt sandt, det jeg siger nu. Jeg har været tæt på at være gældfri i 2007. I samme periode var jeg også tæt på at bryde mig om mit udseende og lige ved at kunne lide mit arbejde. Det var ikke lige så chokerende som mødet med løberen i Fælledparken, men det var tæt på. Det var forfærdeligt. Det var jo slet ikke mig! Jeg kunne ikke kende mig selv. Men heldigvis gik der kun et par måneder, så var jeg tilbage på det nedadgående spor igen."	"NO QUESTION"	NA	.	-1	-1	1006	1165	10	9	9
Test	22	False	experiment	"Det er Sankt Hans. Dagene bliver kortere og nætterne bliver mørkere. Og det er ikke jeres regninger I skal smide på bålet, hvis I vil have det bedre. Det er jeres forestillinger om hvad der sker, når de ikke findes længere, som I skal af med. Og når I kommer af med dem, så kan I begynde at leve sammen med os andre i den verden vi også lever i."	"Spørgsmål:\nMener taleren at det vil hjælpe på ens velbefindende at brænde sine regninger?"	1	1	1826	1	736	1165	11	9	9
Test	23	False	experiment	"Løberen døde. I er i live. Det er skattereformen også. Og hvis I synes det er noget snavs, så husk at der er en stor demonstration imod de blårøde og deres uhæderlige verdener i dag klokken 16 foran Finansministeriet. Og nej, vi futter ikke Bjarne Corydon af. Der er simpelthen ikke skaft nok mellem benene på ham til at vi kunne få ham til at sidde fast på bålet."	"NO QUESTION"	NA	.	-1	-1	505	1165	12	9	9
Test	24	False	experiment	"God demo og god sommer."	"NO QUESTION"	NA	.	-1	-1	465	1165	13	9	9
Test	25	False	experiment	"NY TALE BEGYNDER NU"	"NO QUESTION"	NA	.	-1	-1	538	1318	-1	9	9
Test	26	False	experiment	"Det var en spand med grå, døde hummere på Gilleleje Havn, som endelig fik offentligheden til at indse, at landbruget ikke bare kunne gøde og sprøjte, så meget de ville. TV Avisens indslag i 1986 betød et vendepunkt i dansk miljøpolitik."	"NO QUESTION"	NA	.	-1	-1	477	1318	0	9	9
Test	27	False	experiment	"Manglende ålegræs og døde hummere er ikke ligefrem noget at være stolte af. Til gengæld kan vi godt være lidt stolte af det, der skete i årene efter TV Avisens indslag. Der blev nemlig taget fat: Danmark fik sin første vandmiljøplan, og vi blev foregangsland på vandmiljøområdet. Der blev også sat gang i naturgenopretning og skovrejsning. Initiativer, der gav danskerne mange gevinster, blandt andet også bedre vandmiljø."	"NO QUESTION"	NA	.	-1	-1	837	1318	1	9	9
Test	28	False	experiment	"Men hvis vi nu kun kigger 5 eller 10 år tilbage, så er der måske ikke så meget at bryste sig af mere. Vores vandmiljø har det stadig ikke godt nok, vores indsats er langsom og halvhjertet, og vi er for længst blevet overhalet af EU og vandrammedirektivet."	"Spørgsmål:\nMener taleren at det danske vandmiljø har det godt nok?"	2	1	1735	0	583	1318	2	9	9
Test	29	False	experiment	"EU's vandrammedirektiv er faktisk inspireret af den tidlige danske vandmiljøindsats. Så det er lidt ironisk, at vi har haft så svært ved at følge op på EU's regler under den tidligere regering. Det kan vi gøre bedre, og det vil jeg gerne tage min del af ansvaret for: Vi skal stramme op. Vi skal ikke bare leve op til EU's regler. Vi skal også igen blive førende."	"NO QUESTION"	NA	.	-1	-1	417	1318	3	9	9
Test	30	False	experiment	"Men hvad er der sket siden 1986? Hvad er behovet nu og her? Og hvordan får vi sammen Danmark tilbage i førersædet? Det vil jeg give mit bedste bud på de næste 10-15 minutter."	"NO QUESTION"	NA	.	-1	-1	297	1318	4	9	9
Test	31	False	experiment	"Når vi gør status over miljøtilstanden, ser det heldigvis ikke helt sort ud alt sammen. Der er sket forbedringer. Udledning af næringsstoffer er blevet væsentligt reduceret. I de sidste par år har vi haft færre områder med iltsvind, og på steder, hvor der tidligere var iltsvind, er der de seneste år kommet flere bunddyr, og der er begyndende tegn på forbedringer også for ålegræsset."	"NO QUESTION"	NA	.	-1	-1	3036	1318	5	9	9
Test	32	False	experiment	"Men at tegnene på forbedring har været – og stadigvæk er – så langsomme om at slå igennem, viser netop, at vi har været i en situation, hvor vi har belastet miljøet så hårdt, at det er utroligt svært at vende tilbage til udgangspunktet. Økosystemernes robusthed er blevet nedbrudt, og balancerne er blevet forskudt."	"NO QUESTION"	NA	.	-1	-1	1324	1318	6	9	9
Test	33	False	experiment	"Det tager rigtig lang tid at få bygget naturens systemer op igen. Vi kan ikke bare lade stå til. Vi kan heller ikke klare os med hurtige løsninger. Vi skal blive ved og ved og tænke store sammenhænge og langsigtet. Det kræver en kæmpe indsats, et godt samarbejde, en bred forståelse for hinandens problemer, en god dialog og en innovativ udvikling af ny teknologi."	"NO QUESTION"	NA	.	-1	-1	223	1318	7	9	9
Test	34	False	experiment	"Hvis vi for et kort øjeblik ser tilbage, fik vi allerede i 1981 de første varsler på, at der var noget galt i de danske farvande, hvor vi oplevede omfattende fiskedød og iltsvind flere steder. I 1985 kom der så en handlingsplan for kvælstof, fosfor og organisk stof. Men det var først med de døde hummere i Kattegat i 1986, at der for alvor blev sat gang i debatten om vores vandmiljø, og det blev til ikke mindre end tre vandmiljøplaner i årene 1987-2004."	"NO QUESTION"	NA	.	-1	-1	317	1318	8	9	9
Test	35	False	experiment	"Vandmiljøplan I og II rummede en bred indsats over for rigtig mange kilder: landbrug, industri, by-spildevand, dambrug og havbrug. Nu skete der noget. Der blev etableret rensningsanlæg ved byerne, store vådområder dukkede op i det danske landskab, og der blev påbegyndt en regulering af landbrugets udledninger. Og den regulering gælder stadig og den virker."	"NO QUESTION"	NA	.	-1	-1	295	1318	9	9	9
Test	36	False	experiment	"Vandmiljøplan III fra 2004 fokuserede på en endnu bredere indsats for at nedbringe landbrugets påvirkning af vandmiljøet. De to første vandmiljøplaner er blevet gennemført og fik god effekt, men vandmiljøplan III fik aldrig den effekt, der var tilsigtet, og der er sket en kraftig neddrosling af indsatsen for vandmiljøet siden da."	"NO QUESTION"	NA	.	-1	-1	691	1318	10	9	9
Test	37	False	experiment	"Hvor står vi nu? Nu har udledningen fra industrien fået en fornuftig regulering, by-spildevandet bliver renset, og forureningen fra landbruget er reduceret væsentligt. Landbrugets forurening er dog stadig meget markant, når vi snakker om vandmiljø, og det er vores helt store udfordring. Det er den udfordring vi særligt skal tage fat om i de kommende vandplaner. Og der skal gøres en fornyet indsats for at få gennemført spildevandshåndtering i spredt bebyggelse."	"Spørgsmål:\nMener taleren at udledningen fra industrien er fornuftigt reguleret?"	1	1	663	1	331	1318	11	9	9
Test	38	False	experiment	"Hvad vil vi gerne have? Vi skal have en sammenhængende indsats i forhold til Danmarks vandmiljø med vandløb, søer, vådområder, fjorde, hav og grundvand. Vandet skal flyde rent og naturligt igennem enge, vådområder, skove og et velfungerende bæredygtigt landbrugsland og ende i rene fjorde og kystvande. Vi skal have nogle sammenhængende og naturlige økosystemer, med naturlige processer og naturlig dynamik, hvor vi får genoprettet balancer og robusthed i systemerne. Her skal være plads til vandets naturlige bevægelse og fluktuationer og plads til vandmiljøets sammenhæng og samspil med de tilgrænsende arealer."	"Spørgsmål:\nMener taleren at havmiljøet er være en del af den sammenhængende indsats for Danmarks vandmiljø?"	1	1	545	1	278	1318	12	9	9
Test	39	False	experiment	"Derfor er jeg også rigtig glad for at kunne sige, at der over de næste to år er afsat yderligere 159 millioner kroner til at etablere flere store vådområder. Disse vådområder – søer og våde enge – skal være med til at sikre, at Danmark får et bedre miljø, reducere kvælstofkoncentrationen og give en rigere natur. Samtidig kan de være med til at opsamle regn under skybrud og give gode friluftsoplevelser. Vådområder er et rigtig godt middel til at løse flere ting på engang. Det er sådan nogle virkemidler, vi skal have fat i. Vi skal i det hele taget bruge vores hoveder og finde mange flere virkemidler. Randzoner, ådale og nye skove er rigtig gode virkemidler, som jeg glæder mig til at sætte mit præg på."	"NO QUESTION"	NA	.	-1	-1	706	1318	13	9	9
Test	40	False	experiment	"Men hvad vil regeringen gøre? Her må jeg dele det op i tre dele, nemlig: her og nu, om et øjeblik – og lige straks. Her og nu må vi få vedtaget vandplanerne i en fart. Om et øjeblik – eller to – går vi i gang med at arbejde imod en fuld gennemførelse af EU's Vandrammedirektiv og Natura 2000-direktiverne, og i 2012 skal Havstrategidirektivets basisanalyse og miljømål være på plads. Og lige straks går vi i gang med det visionære: en mere overordnet grøn omstilling af Danmark."	"NO QUESTION"	NA	.	-1	-1	347	1318	14	9	9
Test	41	False	experiment	"Jeg vil tage til Bruxelles og drøfte forventningerne til den fremadrettede indsats med miljøkommissæren. EU-formandskabet er også vigtigt, når det drejer sig om at gøre landbrugspolitikken og tilskudsordningerne 'grønnere'. Fødevareministeren og jeg vil presse på for at få tilskudsordninger, der på bedste vis kan hjælpe os til at nå visionære mål for vandmiljø og natur."	"NO QUESTION"	NA	.	-1	-1	335	1318	15	9	9
Test	42	False	experiment	"Jeg sidder jo nu som ny minister og er nødt til at sende nogle vandplaner ud, som jeg ikke selv har lavet. Tro mig, de ville have set noget anderledes ud, hvis jeg havde været minister i de år, de er blevet til i. Skulle jeg så stoppe dem? Nej, for vi er allerede stærkt forsinkede."	"NO QUESTION"	NA	.	-1	-1	243	1318	16	9	9
Test	43	False	experiment	"Nu er det vigtigt, at de kommer ud, og at vi kommer i gang med at gennemføre den indsats, der trods alt er i udkastene til planerne. Og det er en stor miljøsejr, at de vandplaner overhovedet kommer i gang. Med de kommende generationer af vandplaner og de nye havstrategier skal vi nok anstrenge os for at komme videre, så vi kan nå miljømålene. Vi må og skal leve op til kravene i EU's direktiver. Men det skal selvfølgelig gøres på den bedste måde og uden at lukke hverken landbruget eller industrien i Danmark."	"NO QUESTION"	NA	.	-1	-1	38	1318	17	9	9
Test	44	False	experiment	"Vi nedsætter derfor en uafhængig natur- og landbrugskommission, som effektivt skal tage fat på løsningen af landbrugserhvervets miljømæssige udfordringer. Ikke mindst i forhold til natur- og vandmiljøindsatsen. Men også klimaindsatsen kommer til at indgå i kommissionens arbejde."	"NO QUESTION"	NA	.	-1	-1	458	1318	18	9	9
Test	45	False	experiment	"Regeringen vil på den baggrund fremlægge en køreplan for fuld gennemførelse af EU's vandrammedirektiv og Natura 2000-direktiverne, så Danmark kommer tættere på en rettidig gennemførelse af vand- og naturplanerne. Det er også nødvendigt, hvis Danmark skal kunne bidrage til at gennemføre den europæiske vand- og naturlovgivning i hele EU. Ikke mindst under Danmarks EU-formandskab. Og det er i høj grad intentionen: Når Danmark sidder i formandsstolen, vil vi kæmpe for at få en grøn omstilling af EU højt på dagsordenen."	"NO QUESTION"	NA	.	-1	-1	359	1318	19	9	9
Test	46	False	experiment	"Men hvordan kan man overhovedet tale om at tage et større hensyn til miljøet, når verden står midt i en økonomisk krise? Her siger vi i regeringen, at det er netop det, vi skal tale om. For vi har i virkeligheden to kriser: en økonomisk krise og en klima- og miljøkrise. Vores klode kan ikke klare presset på ressourcer og på klimaet, hvis vi bliver ved med at forbruge og forurene i det tempo, vi ser nu. Derfor er det tydeligt for mig og resten af regeringen, at de to kriser skal løses sammen. Og miljøet er nøglen til at løse flere af de økonomiske problemer, vi står med lige nu. Det er jeg overbevist om. Hvis vi får skabt en bæredygtig vækst, der udnytter ressourcerne bedre og udvikler ny miljøteknologi, kan vi både hjælpe miljøet og økonomien."	"NO QUESTION"	NA	.	-1	-1	452	1318	20	9	9
Test	47	False	experiment	"Regeringen ønsker at få Danmark tilbage i front, når det kommer til bæredygtige løsninger, både i industrien, i landbruget og i byerne. Danmark skal være et grønt demonstrationsland. Her skal nye teknologier udvikles og afprøves, så de bliver efterspurgt globalt. Det skal for eksempel være her, den nyeste biogasteknologi udvikles. Det er ikke alene godt for klimaet, når landbruget laver gas i stedet for gyllespredning."	"NO QUESTION"	NA	.	-1	-1	476	1318	21	9	9
Test	48	False	experiment	"Det kan også give god økonomi og nye eksportmuligheder. Der er masser af muligheder i grøn omstilling. Men det kræver en nytænkning og en dedikeret tilgang til projekterne. Vi vil også fortsat sikre mere natur og skov. Den grønne omstilling handler i høj grad også om at give naturen mere plads for også at styrke vores velfærd. Det kræver også, at rammerne tillader det og motiverer det."	"NO QUESTION"	NA	.	-1	-1	490	1318	22	9	9
Test	49	False	experiment	"Derfor vil jeg gå i dialog med jer, med landbruget, med industrien og med andre, der har fingeren i jorden, for at finde frem til en miljøregulering, der lige præcis peger i den rigtige retning uden at lægge hindringer i vejen for en grøn omstilling. Jeg kan med glæde konstatere, at dambrugsområdet nu får en intelligent regulering til gavn for miljø, teknologiproducenter og erhverv. Her opnås en reduktion af organisk materiale til vores vandløb og søer samtidig med at produktionen øges og erhvervet styrkes."	"NO QUESTION"	NA	.	-1	-1	731	1318	23	9	9
Test	50	False	experiment	"Det er bare et eksempel på en vej at gå, for vi kan ikke bare betale os til flotte løsninger – og slet ikke nu, hvor statskassen praktisk talt er tom. Vi skal bruge vores hoveder, og 100.000 hoveder tænker bedre end et. Derfor skal både landbrug, miljøorganisationer, embedsmænd, forskere, virksomheder og finansfolk lægge hovederne i blød og dele deres tanker og ideer med hinanden."	"NO QUESTION"	NA	.	-1	-1	310	1318	24	9	9
Test	51	False	experiment	"Langsigtede visioner, fri kreativitet, nye veje og samarbejde på tværs skal være i højsædet. Og visioner skal ikke bare være noget, vi snakker om ved festlige lejligheder. De skal føre til handling. Senere på ugen håber jeg at kunne præsentere de nye vand- og naturplaner. Der sker noget nu, og det vil jeg glæde mig over på vandmiljøets og naturens vegne. Og jeg vil efterfølgende lytte til jeres ideer til, hvad vi skal lægge vægt på, når vi forbereder næste runde af vandplaner. "	"NO QUESTION"	NA	.	-1	-1	413	1318	25	9	9
Test	52	False	experiment	"Min egen personlige vision som minister handler derfor om at føre en bred dialog og udvikle et godt samarbejde. Netop derfor vil jeg sige til alle interesseorganisationerne, at nu har I en regering, der lytter til gode forslag og ideer. Så læg dem endelig på bordet, så vi kan få et konstruktivt samarbejde – både om de næste generationer af vandplaner og om alt det andet lige fra døde, grå hummere til sprællevende bævere og bisoner."	"NO QUESTION"	NA	.	-1	-1	515	1318	26	9	9
Test	53	False	experiment	"NY TALE BEGYNDER NU"	"NO QUESTION"	NA	.	-1	-1	507	1125	-1	10	10
Test	54	False	experiment	"Tak for invitationen til at komme og tale på denne dejlige og specielle aften.\nSkt. Hans aften er speciel - vi fejrer lyset med bål, sange og samvær. Vi samles på tværs af de ting, der ellers nok kan dele os op til hverdag. Vi synger vort fædrelands sange. Vi lytter til hinanden, taler med hinanden. Glæder os over de unge, som har gjort deres uddannelse færdige - de springer ud. Nogle er færdige med folkeskolen og skal videre efter sommerferien på en ungdomsuddannelse. Andre er blevet studenter eller svende. De har gjort, hvad vi forventer af dem: gjort sig dygtigere, læst, arbejdet med stoffet, fået indsigt og viden, dannet sig som mennesker i samspillet med deres undervisere og med hinanden. De er så klar!"	"NO QUESTION"	NA	.	-1	-1	1767	1125	0	10	10
Test	55	False	experiment	"Hvad er det så for et land, som de nu for alvor begynder at tage medansvar for? Hvad er det for et land, som vi står midt i? Det er et land, som er udfordret. Vi er udfordret. Og det gælder både økonomisk og i vores forståelse af, hvem vi er i forhold til vores omverden - også vores nære naboer."	"Spørgsmål:\nMener taleren at Danmarks økonomi er udfordret?"	1	1	453	1	459	1125	1	10	10
Test	56	False	experiment	"Økonomisk står vi i en situation, hvor opbygningen af gæld og kommende mangel på arbejdskraft nok er blevet mindre (på grund af aftalen om højere pensionsalder og afvikling af efterløn). Men vi stifter stadig gæld hver eneste dag. Mange af de unge, som netop har gjort deres uddannelse færdig, vil opleve, at de ikke kan finde et job. Det halter med at skabe jobs. Virksomhederne flytter deres produktion eller finder nye underleverandører i andre lande, hvor de også er dygtige og omkostningerne mindre. Udfordringen er med andre ord: Hvad skal vi leve af?"	"NO QUESTION"	NA	.	-1	-1	56	1125	2	10	10
Test	57	False	experiment	"Der er mange tekniske svar på spørgsmålet om, hvad vi skal leve af. Men der er også et svar, der ikke handler om teknik. Det handler om mennesker. Om at vi som mennesker skaber forandringer gennem den måde, vi lever på."	"NO QUESTION"	NA	.	-1	-1	842	1125	3	10	10
Test	58	False	experiment	"Danmark har været udfordret så mange gange før. Eksempelvis da prisen på korn faldt og smørret havde for dårlig kvalitet. Ingen havde alene råd - eller mælk nok for den sags skyld - til datidens nyeste teknologi: Centrifugen. I stedet for at den rigeste alligevel købte den og gjorde andre til sine underleverandører, fandt de på noget andet. De fandt på andelsbevægelsen. De lavede en forening, hvor hver mand havde sin stemme, og hvor man afregnede efter, hvor meget mælk man leverede. Alle havde lige indflydelse, men det kunne betale sig at levere mere."	"Spørgsmål:\nFik et medlem i andelsbevægelsen flere stemmer af at levere mere mælk?"	2	1	1230	0	766	1125	4	10	10
Test	59	False	experiment	"De opfandt ikke centrifugen, men de opfandt en genial måde at organisere sig på, så de virkelig fik gavn af den nye teknologi. Det blev ikke kun til andelsmejerier. Det blev til brugsforeninger og slagterier, minkavl og vindmøllelaug. Det blev til et Danmark præget af bevægelser og foreninger. Nok med stærke formænd og -kvinder, men frem for alt med stærke medlemmer. Fordi det gør en forskel, når man er med til at bestemme."	"NO QUESTION"	NA	.	-1	-1	1914	1125	5	10	10
Test	60	False	experiment	"I 1882, da andelsmejeriet åbnede, havde vi haft demokrati i knap 30 år. Jeg tror, at grunden til at de fandt på det, var demokratiet. Det var jo sådan set demokrati, når der er gensidig respekt. Når hvert menneske tæller lige meget. Når man må sige, hvad man vil og synes at andre skal have og bruge samme rettighed."	"NO QUESTION"	NA	.	-1	-1	74	1125	6	10	10
Test	61	False	experiment	"Det smør, der kom ud af andelsmejeriets centrifuge, var af god kvalitet. Så god kvalitet, at det kunne sælges uden for landet grænser. Og det har vi så i stort og småt levet af siden. Danmark er en lille, åben økonomi, og vi lever af, at andre vil købe vores varer. Og de varer er der mange af - fødevarer i alle afskygninger, vindmøller, spil og film, design og maskiner. Vi er blevet rige af at butikken har åben. Ikke af at den lukker. Hvem kan købe ind i en lukket butik? Danmark skal være et sted, hvor der er værd at komme - og som er værd at rejse ud fra for at få nye erfaringer, indsigter og ideer med hjem."	"NO QUESTION"	NA	.	-1	-1	1563	1125	7	10	10
Test	62	False	experiment	"Ligesom problemerne i vores moderne verden er grænseoverskridende, så er mulighederne det også. Og grænseoverskridende muligheder får vi mest ud af, hvis vi bruger dem sammen. Jeg ved godt, at det en meget lavtflyvende erfaring, men den er stadig rigtig: Sammen er vi stærke. Og styrken kommer ikke af at være ens, men af at kunne noget forskelligt, så vi kan meget mere sammen, end vi kunne hver for sig."	"NO QUESTION"	NA	.	-1	-1	1711	1125	8	10	10
Test	63	False	experiment	"Det er jo ingen kunst at sige, hvad man vil på en øde ø. Du kan råbe eder, forbandelser og håne lige så tosset du vil. Hvis ingen hører det, har det ingen konsekvenser. Du er bare alene med dit skrigeri. For at noget bliver en værdi - noget vi synes er vigtigt - så kræver det, at vi er flere - at vi laver et samfund. Du er ikke fri, hvis du er alene. Så er du bare alene. Først når du lever sammen med andre, kan du afprøve, om værdierne er noget, der bliver til virkelighed i hverdagen."	"Spørgsmål:\nKan man - ifølge taleren - være fri hvis man er alene?"	2	1	2084	0	672	1125	9	10	10
Test	64	False	experiment	"Det er jo åbenlyst ikke noget ved ytringsfrihed, hvis der ikke er nogen, der lytter. Der er ikke noget ved friheden til at samle sig, hvis der ikke er nogle at samle sig med. Det er i samspillet med andre mennesker - og især i samspillet med dem, der har magten - at frihed kan blive til levende hverdag."	"NO QUESTION"	NA	.	-1	-1	4385	1125	10	10	10
Test	65	False	experiment	"For en uge siden var jeg også på Bornholm: til Folkemødet i Allinge. Der var taler, debatter, diskussioner, blev stillet spørgsmål og kommenteret. Der blev mumlet i krogene, hvisket ved siderne og grinet og leet. Der var jordbær på tilbud i Brugsen, en kajkant at sidde og spise dem på og mennesker at være sammen med. Det var en stor og god oplevelse - en demokratisk oplevelse: Ytringsfriheden blev brugt, forsamlingsfriheden, fraværet af censur - og den grundlæggende, gensidige respekt var til stede. Det har taget os mange, mange år at opbygge vores demokrati - det tog os over 60 år fra de første mænd fik stemmeret til kvinderne kom med."	"NO QUESTION"	NA	.	-1	-1	1437	1125	11	10	10
Test	66	False	experiment	"I går var jeg i Benghazi. I Libyens næststørste by, hvor det nationale overgangsråd har sæde - hvor Gadaffi har tabt, og oprørerne vundet. Udenrigsministeren havde sammensat en delegation af repræsentanter for hvert parti. Vi var dernede netop for at tale med de mennesker, som vil tage ansvar for overgangen til et nyt Libyen. Et demokratisk og frit Libyen."	"Spørgsmål:\nEr Benghazi Libyens største by?"	2	1	1391	0	5710	1125	12	10	10
Test	67	False	experiment	"Vi mødte hvad der svarede til os selv: Medlemmer af parlamentet. Vi stillede dem spørgsmål, og de svarede - åbent og nogle gange søgende og meget oplysende - på spørgsmål om, hvordan det skal være efter Gadaffi, om kvinders stilling og om de indefrosne midler, som de ikke har adgang til. Og de spurgte os: 'Vil I hjælpe os med at hjælpe de kvinder, som systematisk er blevet voldtaget af Gadaffis styrker? Hvad tænkte I, da I hørte om vores revolution?' Da Gadaffi havde tabt, var der ingenting. Intet. Alt har de skullet bygge op selv. Og det er de i gang med."	"NO QUESTION"	NA	.	-1	-1	948	1125	13	10	10
Test	68	False	experiment	"Der var en, der spurgte dem, om det kan lade sig gøre: 'Kan Libyen blive frit og demokratisk?' Det var formanden Jalil, der svarede. Han sagde nogenlunde dette her: 'Da der var krig i Jugoslavien, kom Danmark med til EM på afbud. I var undervurderede, og det var jo sådan set ikke meningen, at I skulle med. Jeg heppede på jer. I spillede. Og vandt! Der kan ske uventede og utrolige ting,' sagde han og smilede. Der kan ske uventede og utrolige ting."	"NO QUESTION"	NA	.	-1	-1	1889	1125	14	10	10
Test	69	False	experiment	"I deres mediecenter holder de blandt andet en Facebook-side med internationale nyheder om Libyen ved lige. Finder de en historie på engelsk, så oversætter de den til arabisk, så langt, langt flere kan få adgang til den. Væggene var fyldt med karikaturtegninger af Gadaffi. 'Vi vidste ikke, at nogen kunne det,' sagde én af dem, der fulgte os rundt. 'Med vores revolution kom karikaturerne også.' Pludselig kunne man ytre sig."	"NO QUESTION"	NA	.	-1	-1	1453	1125	15	10	10
Test	70	False	experiment	"Jeg spurgte en ung pige, hvad hun lavede. Hun var i gang med at finde ud af, hvilke foreninger, der var dannet rundt omkring. Hun havde ikke vidst, hvad en forening var. For det var jo ikke tilladt - og der var 17 efterretningstjenester til at tjekke, at man ikke lavede foreninger. De er ligesom os. De ønsker sig frihed, demokrati, et sundhedsvæsen, der fungerer."	"NO QUESTION"	NA	.	-1	-1	633	1125	16	10	10
Test	71	False	experiment	"Vi har og vi har haft vores kampe i Danmark. Det er deres kamp. Vi kan hjælpe og støtte, men det er deres kamp for det Libyen, som de gerne vil have. Jeg tror, at de vil vinde den, og at de langsomt, men sikkert, vil opbygge et demokrati. I deres land."	"NO QUESTION"	NA	.	-1	-1	1436	1125	17	10	10
Test	72	False	experiment	"Der er også mange, mange forskelle mellem borgerne i ørkenlandet, hvor der kun vokser noget dér, hvor der bliver vandet – og her, hvor der bliver 'vandet' hele tiden. Men i stedet for at remse forskellene op og bruge dem som byggesten i muren mellem dem og os – så kan vi se på det, som vi er fælles om: Menneskerettigheder fordi vi er mennesker og er født lige og frie."	"NO QUESTION"	NA	.	-1	-1	11101	1125	18	10	10
Test	73	False	experiment	"'Menneskerettigheder' – det lyder højstemt og abstrakt, selv for en tale ved Skt. Hans. Men det er hverdag. Det er den gensidige respekt. Friheden til at sige, hvad man mener. Friheden til at være sammen med dem, man vil. Retten til at leve sammen med ens familie."	"NO QUESTION"	NA	.	-1	-1	459	1125	19	10	10
Test	74	False	experiment	"Så nok er Danmark udfordret. Men det har vi været før. Og det kan vi løse - hvis vi gør det sammen og med forskellene mellem os som styrken. Og når vi kan samles om bålet, kan vi også samles om de problemer, som vi kan løse i fællesskab. Der er ikke længe til valget, men i aften samles vi uden om de politiske skel for at fejre sommeren, lyset og samværet."	"NO QUESTION"	NA	.	-1	-1	427	1125	20	10	10
Test	75	False	experiment	"Tak for ordet."	"NO QUESTION"	NA	.	-1	-1	1140	1125	21	10	10
Test	76	False	experiment	"NY TALE BEGYNDER NU"	"NO QUESTION"	NA	.	-1	-1	280	1317	-1	10	10
Test	77	False	experiment	"Vi har to kriser: en økonomisk krise og en klima- og ressourcekrise. De skal løses sammen. Lige nu står vi på en brændende platform: Kina sidder på markedet for ressourcer som blandt andet sjældne mineraler og en lang række andre værdifulde og kritiske ressourcer, samtidig med at både ressourceknaphed og -forbrug stiger."	"NO QUESTION"	NA	.	-1	-1	290	1317	0	10	10
Test	78	False	experiment	"EU's vision for 2020 er at 50 procent af husholdningsaffaldet genanvendes. Vores fælles vision for 2020 skal være endnu mere ambitiøs – og stile mod at deponering stort set ophører og genanvendelsen stiger markant. Regeringens 50 nye millioner til miljøteknologi på finansloven skal understøtte udviklingen. I skal bidrage med løsninger! Bedre ressourceforvaltning og affaldsforebyggelse er nogle af nøgleordene."	"NO QUESTION"	NA	.	-1	-1	2463	1317	1	10	10
Test	79	False	experiment	"Når affaldet genanvendes, skal det gerne blive til produkter af høj kvalitet, som forbrugerne vil købe. Vi skal med andre ord undgå downcycling og ikke forringe kvaliteten af materialerne. Målet er at recirkulere mange flere af de værdifulde ressourcer, der findes i affaldet."	"NO QUESTION"	NA	.	-1	-1	648	1317	2	10	10
Test	80	False	experiment	"Som for eksempel når affald af Rockwool i Danmark kan blive indsamlet og genbrugt til ny Rockwool. På samme tid får man en billig råvare, der kan erstatte nye råvarer, og man er fri for at skulle deponere affaldet. Begge dele sparer kloden for udledning af en masse CO2."	"NO QUESTION"	NA	.	-1	-1	1571	1317	3	10	10
Test	81	False	experiment	"Det er ikke nok kun at overveje energiindholdet i affaldet – der findes mange andre værdifulde og udtømmelige ressourcer, som ikke bør gå til spilde. Eksempelvis metaller og sjældne jordarter som anvendes i mobiltelefoner og pc'er. Både europæiske og nationale initiativer er nødvendige for at øge ressourceeffektiviteten i Danmark og EU. Derfor bliver et af de vigtige punkter på dagsordenen for det danske formandskab også at arbejde med Ecodesign-direktivet. Det skal ikke bare begrænse produkternes energiforbrug, men også designe produkterne, så det er lettere at recirkulere ressourcerne."	"NO QUESTION"	NA	.	-1	-1	190	1317	4	10	10
Test	82	False	experiment	"På EU-niveau ved vi, at: 3⁄4 af EU's påvirkning af miljøet stammer fra fødevarer og drikkevarer, privat transport og boliger. Langt det meste af produkternes miljøpåvirkning bestemmes i designfasen."	"NO QUESTION"	NA	.	-1	-1	704	1317	5	10	10
Test	83	False	experiment	"Hvordan kommer så vi videre? Et væsentligt skridt er Kommissionens 'Køreplan til et ressourceeffektivt Europa'. Det overordnede mål: et lavere træk på klodens ressourcer via mere og bedre genanvendelse. Jeg har valgt et par eksempler – der er mange at vælge imellem: Det første er flere offentlige grønne indkøb. Her spiller blandt andre kommunerne en rigtig stor rolle. Vi skal også have affaldshierarkiet mere tydeligt i spil, så det indgår klart i vores regulering på tværs af sektoren – for eksempel ved regler om produkter eller krav til bygge- og anlægsarbejder."	"NO QUESTION"	NA	.	-1	-1	945	1317	6	10	10
Test	84	False	experiment	"Det tredje eksempel, som også flugter med det nye regeringsgrundlag, er ønsket om at skatter og afgifter flyttes fra arbejde til miljø og ressourcer. Det skal understøtte grønne jobs og sikre, at der er betaling for både ressourceforbrug og miljøbelastning."	"NO QUESTION"	NA	.	-1	-1	2730	1317	7	10	10
Test	85	False	experiment	"Et nyt 7. miljøhandlingsprogram i EU skal konkretisere køreplanen. Under overskriften 'Greening the economy' skal et langsigtet 10-årigt program bidrage til Europas grønne omstilling af økonomien. Det skal bygge videre på ressourceeffektivitets-dagsordenen, indsatsen for biodiversitet, vand, klima samt miljø og sundhed, som var hovedindsatsområderne i det 6. miljøhandlingsprogram. Bæredygtig forvaltning af ressourcer og affald er fortsat et område, der prioriteres højt på europæisk plan."	"NO QUESTION"	NA	.	-1	-1	129	1317	8	10	10
Test	86	False	experiment	"Også på den hjemlige bane, er der politisk fokus på ressourcer. Den danske affaldsstrategi 2013-18 bliver en ressourcestrategi. Ressourcestrategien skal være vores nationale plan for, hvad der skal gøres. Den vil blive fulgt af en plan for, hvordan vi forebygger affald i 2014-19, som skal laves for første gang."	"NO QUESTION"	NA	.	-1	-1	225	1317	9	10	10
Test	87	False	experiment	"Begge planer skal være klare og prioriterede: Hvad er vigtigst at nå for Danmark? Hvad er realistiske, men samtidig ambitiøse målsætninger? Hvilke midler skal vi have på plads for at nå målene? Det er spørgsmål, som jeg er sikker på, at branchen har nogle bud på. Jeg håber, I vil være med til at finde løsninger på tværs, der kan gavne både miljø, økonomi og konkurrenceevne. Ikke bare fordi det er bedst, men fordi det er den eneste løsning."	"NO QUESTION"	NA	.	-1	-1	742	1317	10	10	10
Test	88	False	experiment	"Det allerbedste vil selvfølgelig være, hvis vi kan undgå at producere affald. Men hvordan gør vi det? Her tager jeg udgangspunkt i, hvad den enkelte kan gøre. Som forbrugere kan vi købe kvalitetsvarer, bruge tingene mere og længere og reparere dem i stedet for at smide dem ud. Vi kan også købe brugt, sælge, bytte eller forære vores ting væk. På den måde får de et længere liv, og flere får glæde af dem."	"NO QUESTION"	NA	.	-1	-1	272	1317	11	10	10
Test	89	False	experiment	"Med hensyn til madspild burde det være endnu nemmere. Hvis alle forbrugere fulgte det enkle råd: 'Køb ikke mere mad, end du har brug for, og brug det mad, du har købt' – ja, så ville der ikke være så meget madspild i vores affaldssække. Jeg er glad for, at dette budskab er blevet udbredt af mange forskellige aktører i de seneste år. Af både miljømæssige, økonomiske og etiske årsager skal madspildet blive mindre."	"NO QUESTION"	NA	.	-1	-1	92	1317	12	10	10
Test	90	False	experiment	"Ressourceeffektivitet i hele produktionskæden for fødevarer skal indgå i EU-arbejdet. Det er allerede nævnt i udkastet til køreplanen for ressourceeffektivitet, og det skal også med i det 7. miljøhandlingsprogram."	"NO QUESTION"	NA	.	-1	-1	1433	1317	13	10	10
Test	91	False	experiment	"I regeringen lægger vi stor vægt på at få skabt brede samarbejder på tværs af myndigheder, organisationer, virksomheder og private. På affaldsområdet har vi allerede et par gode eksempler, som viser, hvordan partnerskaber kan fremme teknologiudvikling."	"NO QUESTION"	NA	.	-1	-1	3565	1317	14	10	10
Test	92	False	experiment	"I arbejdet med den miljøteknologiske handlingsplan skal virksomheder og myndigheder sammen skabe de bedste rammer for en fokuseret teknologiudvikling. Myndighederne får samtidig input til en god og bæredygtig regulering."	"Spørgsmål:\nSkal virksomheder og myndigheder - ifølge taleren - arbejde sammen om teknologiudviklingen?"	1	1	4864	1	741	1317	15	10	10
Test	93	False	experiment	"Det ene eksempel er et partnerskab, der handler om affald fra neddeling af skrot af biler og elektronik, kaldet shredderaffald. Det deponeres i dag. Men her er der både energi og værdifulde materialer som metal og plast at hente. Et andet eksempel er fosfor i spildevand og slam. Fosfor er en uundværlig plantegødning, som verden kommer til at mangle. Partnerskabet arbejder med at øge fosforudnyttelsen ved at fokusere på udvikling af teknologier og udformning af regler. Målet er, at værdifulde fosforressourcer ikke går tabt."	"NO QUESTION"	NA	.	-1	-1	398	1317	16	10	10
Test	94	False	experiment	"Som I kan se i regeringsgrundlaget, ønsker vi også, at grønne afgifter og behandlingskrav skal være med til at sikre, at naturens ressourcer bruges mest skånsomt, samtidig med at økonomien kommer i bedring. Miljøforbedringer og økonomisk vækst er hinandens forudsætninger og ikke fjender."	"Spørgsmål:\nMener taleren at vi både kan opnå miljøforbedringer og økonomisk vækst?"	1	1	3884	1	762	1317	17	10	10
Test	95	False	experiment	"Hvad kan vi så gøre helt konkret? Det er der mange gode bud på. De danske afgifter på deponering og forbrænding af affald har virket. De har været en vigtig del af succesen med at få reduceret de deponerede mængder helt ned til 6 procent af de samlede affaldsmængder. Men det kan blive endnu bedre. Den nye afgift på deponering af farligt affald har betydet, at affaldsproducenter og deponeringsanlæg nu gør sig store anstrengelser for at udnytte ressourcerne endnu bedre og reducere spildet. Det er altså et eksempel på, at afgifter kan være med til at stimulere en udvikling der sætter fokus på ressourcerne."	"NO QUESTION"	NA	.	-1	-1	109	1317	18	10	10
Test	96	False	experiment	"En anden mulighed er at stille krav til behandlingen af konkrete typer af affald. Men det kan vi kun gøre, når vi har det fulde overblik over de miljømæssige effekter og samtidig kender de samfundsmæssige omkostninger."	"Spørgsmål:\nMener taleren at det - på tidspunktet for talen - er realistisk at stille krav til behandlingen af konkrete typer af affald?"	2	1	1352	0	1420	1317	19	10	10
Test	97	False	experiment	"Et eksempel er forskellige former for genanvendelse af gipsaffald. Miljøstyrelsen er i øjeblikket ved at afslutte de nødvendige livscyklusanalyser og samfundsøkonomiske vurderinger, der skal til, så politikerne får et solidt beslutningsgrundlag. Et andet eksempel er den dagrenovation, som vi brænder i dag. Der er potentiale i at sortere affaldet bedre, så mere af det kan genanvendes. Den organiske del af affaldet kan eksempelvis behandles på biogasanlæg, så energien bliver udnyttet, og plantenæringsstofferne kan udnyttes som gødning på markerne. På den måde kan vi undgå et stort spild af ressourcer og forbedre vores klimaregnskab samtidigt."	"Spørgsmål:\nMener taleren at det er en god ide at sortere dagrenovation bedre end det gøres på tidspunktet for talen?"	1	1	940	1	2787	1317	20	10	10
Test	98	False	experiment	"Klimaudfordringen er til at tage og føle på. Vi skal lægge vores forbrugs- og produktionsmønstre radikalt om, så vi bruger mindre energi. Og teknologi skal forbedre den måde, energien produceres på."	"NO QUESTION"	NA	.	-1	-1	1	1317	21	10	10
Test	99	False	experiment	"Affald bidrager til energiproduktion i dag sammen med bl.a. kul og naturgas, men det kræver nytænkning at omlægge energiproduktionen – også i affaldsbranchen. Det er ikke kun et spørgsmål om, hvor meget affald vi kan brænde. Det kan faktisk være en klimamæssig fordel at genanvende affaldet, også selvom det indeholder biomasse."	"NO QUESTION"	NA	.	-1	-1	1418	1317	22	10	10
Test	100	False	experiment	"Mange livscyklusvurderinger dokumenterer, at genanvendelse af glas, papir og metaller sparer CO2. Endelig peger undersøgelser på, at plast bliver en større og større del af vores affald."	"NO QUESTION"	NA	.	-1	-1	114	1317	23	10	10
Test	101	False	experiment	"For at være åbne for nytænkning, er det vigtigt, at vi sørger for en intelligent tilpasning af forbrændingskapaciteten. Der er ingen, der kan være interesseret i en teknologisk lock-in i form af for mange dyre forbrændingsanlæg. Det vil forhindre innovationen i affaldsbehandlingen, alene fordi anlæggene står der og skal fyldes op med affald."	"NO QUESTION"	NA	.	-1	-1	1429	1317	24	10	10
Test	102	False	experiment	"Her til slut vil jeg gerne runde to meget vigtige emner: sammenhængen mellem affald og miljø, og affald og sundhed. I Danmark genanvender vi det meste bygge- og anlægsaffald. Men der er to store udfordringer, som er vigtige at gribe: Vi skal gøre mere for at undgå farlige stoffer som PCB i det affald, der genanvendes. Det drejer sig både om miljø og sundhed. Vi skal være bedre til at sørge for, at produkter, som genanvendes, har så høj en kvalitet, at bygherrerne efterspørger dem. Vi skal med andre ord arbejde for at mindske downcycling af bygge- og anlægsaffaldet."	"NO QUESTION"	NA	.	-1	-1	6120	1317	25	10	10
Test	103	False	experiment	"Nu har jeg været rundt om forskellige vinkler på affaldspolitikken. De vigtigste budskaber fra mig til jer er: Vi skal udnytte ressourcerne – der skal være ressourcer nok til alle på kloden. Vi skal passe på klimaet – genanvendelse af affald er typisk bedre end anden behandling. Vi skal beskytte miljø og sundhed – vi må ikke sprede farlige stoffer, når vi genanvender affaldet. Det vigtigste er altså at forebygge, at der overhovedet opstår affald, og at genanvende så meget som muligt af det affald, der opstår. Lad os i fællesskab bidrage til Danmarks løsninger på både den økonomiske og ressourcemæssige krise med visionen om at stile mod (næsten) fuld ressourceudnyttelse i 2020."	"NO QUESTION"	NA	.	-1	-1	547	1317	26	10	10
Test	104	False	experiment	"NY TALE BEGYNDER NU"	"NO QUESTION"	NA	.	-1	-1	6	10365	-1	7	7
Test	105	False	experiment	"Kære smukke studenter, kære forældre og kære lærere\nSikke mange flotte hvide huer. Hvor er I et smukt syn. Det er kun tre år siden, I stod her i denne hvide bygning for første gang med folkeskolen i rygsækken og sommerfugle i maven, for nu startede et nyt kapitel. Der er sket meget på de tre år, og I tænker formentlig, at tiden er fløjet afsted. Nu står I her efter intens eksamenslæsning."	"NO QUESTION"	NA	.	-1	-1	378	10365	0	7	7
Test	106	False	experiment	"Utroligt stolt, meget lettet og lidt træt. Sådan tænker jeg, at I har det lige nu. Stolt af at have gennemført. Lettet over at eksamensræset er overstået for denne gang. Og lidt træt på grund af den megen eksamenslæsning med alt for korte nætter og muligvis også lidt for meget fest de seneste dage."	"Spørgsmål:\nForestiller taleren sig at studenterne har festet de seneste dage?"	1	1	901	1	408	10365	1	7	7
Test	107	False	experiment	"Og I har god grund til at være stolte, for det er en vigtig milepæl i jeres liv, som I nu har rundet. Jeg husker, at jeg var lykkelig, da jeg blev student. Jeg havde en oplevelse af, at hele verden lå foran mig. Og ved I hvad? Hele verden ligger også foran jer. Grib livet. Det skal nok gå godt. For der er behov for jer."	"NO QUESTION"	NA	.	-1	-1	5569	10365	2	7	7
Test	108	False	experiment	"Vi ser i dag en politisk polarisering i bl.a. USA og Frankrig, og vi mærker den også herhjemme. Verden bliver fremstillet sort-hvid. Det bekymrer mig. For svaret på samfundets problemer er lige præcis ikke sort og hvidt. Det er nuancer og balancer. Og det ved I mere end nogen andre. Vær på vagt, når nogen serverer enkle løsninger på komplekse ting. For sådan fungerer verden ikke."	"NO QUESTION"	NA	.	-1	-1	683	10365	3	7	7
Test	109	False	experiment	"Verden bliver ikke bedre af at fjerne jøder og kommunister, som Hitler ville. Verden bliver ikke bedre af at slå dem ihjel, som ikke har samme Gud som én selv, som Islamisk Stat vil det. Og verden bliver heller ikke et bedre sted af at forbyde Islam, som Rasmus Paludan vil det. Der er altid flere nuancer til det, øjet lige ser."	"NO QUESTION"	NA	.	-1	-1	323	10365	4	7	7
Test	110	False	experiment	"Makrel, som var præsident for rockerbanden Bullshit tilbage i 80’erne – Bullshit var den rockerbande, der blev udraderet af Hells Angels – han skrev digte og syede tøj til sin kæreste. En ung mand, der ligesom mange andre af Bullshits medlemmer, var blevet svigtet som børn af de voksne omkring dem."	"NO QUESTION"	NA	.	-1	-1	803	10365	5	7	7
Test	111	False	experiment	"Når man ser nærmere på en problematik, så viser der sig oftest flere facetter. Jeg vil på ingen måde forsvare rockerbander og den kriminalitet, de begår. Jeg siger blot, at der kan være flere sider af en sag. Og der kan være grunde til, at ting opstår. Det gør dem ikke nødvendigvis mere rigtige, men det er vigtigt at prøve at forstå."	"NO QUESTION"	NA	.	-1	-1	438	10365	6	7	7
Test	112	False	experiment	"Vi har derfor behov for unge mennesker som jer: unge mennesker med helhedssyn, der kan se nuancerne. Helhedssyn rimer på dannelse, og netop dannelse er det, som I har fået med herfra. På gymnasiet har I fået masser af viden. Udover at have fået styr på sinus og cosinus, Marx og Oehlenschläger, så har I her fået udvidet jeres mentale horisont. I har lært at perspektivere, at være kritisk overfor kilderne, at læse det med småt. Det er gode kompetencer at have med i rygsækken – den rygsæk, I bærer med jer videre i livet og i jeres videre uddannelse og job."	"Spørgsmål:\nMener taleren at studenterne generelt har lært at se nuancer i en sag?"	1	1	699	1	470	10365	7	7	7
Test	113	False	experiment	"De udfordringer, som vi står overfor i dag – og som jeg ved, at også I er optaget af som fx klimaet – det kan virke stort og overvældende. Og det er fristende at spørge, hvad kan jeg egentlig gøre ved det?"	"NO QUESTION"	NA	.	-1	-1	606	10365	8	7	7
Test	114	False	experiment	"Men I kan gøre noget. I kan – der, hvor I er, og der, hvor I færdes - byde ind med jeres viden, jeres nuancerede og balancerede synspunkt. Det skal vi alle gøre. Det er sådan, at vi får et demokrati til at leve. Det er sådan, at vi får virksomheder og arbejdspladser til at udvikle sig og leve."	"Spørgsmål:\nLover taleren at studenterne får et job?"	2	1	767	0	408	10365	9	7	7
Test	115	False	experiment	"Kulturel og politisk forandring sker ikke hen over natten. Det er altid to skridt frem og ét tilbage. Men det tog i 1955 kun én Rosa Parks, der ikke ville rejse sig for en hvid person i bussen i USA, til at skabe en kulturel forandring. Det tog en kun 15-årig svensk pige, Gretha Thunberg, at starte en hel bevægelse blandt unge, der kæmper for et bedre klima. Sidstnævnte har i øvrigt Aspergers og er nu nomineret til Nobels Fredspris."	"Spørgsmål:\nNævner taleren at Rosa Parks er nomineret til Nobels Fredspris?"	2	1	577	0	371	10365	10	7	7
Test	116	False	experiment	"Alt dette for at sige, at du kan godt få noget ud af at stå op for det, du tror på. I som generation kan særligt gøre en forskel. Og det skal I – det må I love mig. For de nye tendenser, de nye måder at gøre ting på, de kommer nemlig oftest fra de unge generationer. Og det er lige nu jer."	"NO QUESTION"	NA	.	-1	-1	270	10365	11	7	7
Test	117	False	experiment	"Vi kan lige så godt se det i øjnene: Jeg og jeres forældre – vi har erfaring, og det er godt, og I skal naturligvis altid lytte til os, men lad os være ærlige, vi har ikke jeres friske syn på tingene og jeres kreativitet og energi. Brug den. Vi – samfundet – har behov for jer. Mere end nogensinde faktisk. Masser af virksomheder står på tæerne for at få fingre i jer. Og det kan jeg godt forstå, for I har meget at byde på."	"NO QUESTION"	NA	.	-1	-1	2933	10365	12	7	7
Test	118	False	experiment	"I er født midt i den digitale guldalder, I taler emoji og taler i forkortelser som LOL og ILU. I er de digitalt indfødte – ikke 'wannabes' som os andre. Med it-teknologien er der kommet mange muligheder til – med Skype, FaceTime, mails og Google står vi anderledes globalt i dag. Og de muligheder er I særligt gode til at gribe."	"NO QUESTION"	NA	.	-1	-1	515	10365	13	7	7
Test	119	False	experiment	"I tænker ud af boksen og kommer med kreative løsninger. Jeg ser det hele tiden, når jeg er ude at besøge skoler og uddannelsesinstitutioner. I er gode til at tænke i løsninger. Det er så godt, bliv ved med det."	"NO QUESTION"	NA	.	-1	-1	1842	10365	14	7	7
Test	120	False	experiment	"Direktøren for Ernst og Young, Mark Weinberg, sagde på en konference sidste år om fremtidens arbejdsmarked: 'We hire for the mindset, not the skill set'. Og I har det rette mindset, og I er toptunet digitalt."	"NO QUESTION"	NA	.	-1	-1	2018	10365	15	7	7
Test	121	False	experiment	"Med IT-mulighederne kommer også nogle udfordringer. Vi har aldrig tidligere haft så mange unge med angst, lavt selvværd og stress. Det siger mere noget om vores samfund, end det siger noget om jer. Det kræver, at vi skal have sjælen med, når vi navigerer i det."	"NO QUESTION"	NA	.	-1	-1	573	10365	16	7	7
Test	122	False	experiment	"Da jeg var ung – og da jeres forældre var unge – der levede vi et stille liv i forhold til jer. Vi levede et liv med først én og senere to tv-kanaler – ja det var vildt, da TV2 kom til. Vi havde ingen Facebook, ingen Instagram, ingen internet, ingen mobiler – bare en fastnettelefon. Når jeg tænker over det, så var det ufatteligt, at vi kunne leve..."	"NO QUESTION"	NA	.	-1	-1	267	10365	17	7	7
Test	123	False	experiment	"Nå, men min pointe er, at vi var ikke på, og vi var ikke til rådighed, som I er. At være ung i dag er næsten som en daglig casting til livets realityshow. I skal være top-omstillingsparate for at kunne klare jer i studier, job og karriere – og udstillingsparate for at kunne klare jer på sociale medier. Det er hårdt."	"Spørgsmål:\nMener taleren at det ubetinget var sværere at være ung for forældregenerationen end for de unge i dag?"	2	1	850	0	839	10365	18	7	7
Test	124	False	experiment	"Med YouTube er du hele tiden tæt på verdensstjernerne, musikere som Rihana, youtubere som PewDiePie og influencere som Olivia Culpo. Du kommer hurtigt til at måle dig med dem. Man glemmer, at det kun er en lille promille af jordens befolkning, der kan synge så flot, være så dygtig eller være så smuk."	"NO QUESTION"	NA	.	-1	-1	1167	10365	19	7	7
Test	125	False	experiment	"De mange digitale platforme stiller krav om, at man er til stede – på den fede måde, vel at mærke. Derfor er der også flere end nogensinde, der lider af FOMO. Fear Of Missing Out."	"NO QUESTION"	NA	.	-1	-1	3562	10365	20	7	7
Test	126	False	experiment	"I skal vælge at være til stede de steder, der siger jer noget. Der, hvor I har interesse og får noget ud af det. I skal være dem, I er. Som I er. For I er gode nok. Fri os fra FOMO. Go SLOMO i stedet. Livet er ikke et racerløb. Jeg havde selv lidt travlt som ung. Det kan jeg se nu. Jeg gik målrettet efter en snor. Lidt pauser ville havde været sundt for mig."	"NO QUESTION"	NA	.	-1	-1	489	10365	21	7	7
Test	127	False	experiment	"Det gode er, at I med stor sandsynlighed bliver 100 år, så I har endnu bedre tid, end jeg har til at stoppe op og reflektere... tid til at opleve. Jeg har sagt det før, og jeg siger det gerne igen: Livet handler heller ikke om at få de allerhøjeste karakterer. Det handler om at få karakter som menneske."	"NO QUESTION"	NA	.	-1	-1	857	10365	22	7	7
Test	128	False	experiment	"Jeg håber, at I vil dyrke nysgerrigheden og leve livet – velvidende at man kan begå fejl. Vi skal ikke have en nul-fejlkultur. Så vil jeg meget hellere have en fejlkultur, for man lærer nemlig af sine fejl, hvis man altså reflekterer over sine valg, og det, man møder i livet."	"Spørgsmål:\nMener taleren at det er gavnligt med en nulfejlskultur?"	2	1	822	0	517	10365	23	7	7
Test	129	False	experiment	"Og det er mit budskab til jer. Gør jer altid umage – gør det bedste, I kan, for så kan I ikke gøre det bedre. Hvil i, at I er gode nok – faktisk helt perfekte – som I er. Vi har aldrig haft så veluddannet en generation som jeres. I er kreative og kaster jer ud i iværksætteri. Fordi I kan. Så venner: Rank ryggen og tro på jer selv."	"Spørgsmål:\nEr studenternes generation - ifølge taleren - den bedst uddannede, historisk set?"	1	1	1034	1	438	10365	24	7	7
Test	130	False	experiment	"Stort tillykke med eksamen og jeres kørekort til fremtiden. Jeg ønsker jer en rigtig god tur."	"NO QUESTION"	NA	.	-1	-1	399	10365	25	7	7
Test	131	False	experiment	"NY TALE BEGYNDER NU"	"NO QUESTION"	NA	.	-1	-1	594	7856	-1	7	7
Test	132	False	experiment	"Kære alle, hvoraf de fleste nok primært er her, fordi de godt kan lide at kigge på et bål og kun sekundært for at høre en ti minutter lang tale fra en person, de ikke ved, hvem er. Jeg kan sige, at jeg heller ikke helt selv ved, hvem jeg er, men at jeg ved, at jeg hedder Anna. Nogle gange hedder jeg også Veronika Katinka. Det er mit alter ego. Det er dér, det bliver lidt forvirrende for mig, men i dag hedder jeg bare Anna, så lad os starte med det. At jeg hedder Anna, og at jeg er meget nervøs, selvom jeg læste retorik på universitetet i to år og derfor burde vide et og andet om at holde en båltale. "	"NO QUESTION"	NA	.	-1	-1	730	7856	0	7	7
Test	133	False	experiment	"Fx har jeg lært af gode, gamle Obama, at det er godt lige at kommentere på noget i situationen, så det virker, som om man er til stede i situationen og ikke bare lirer noget af, man har forberedt forud for situationen, så det vil jeg selvfølgelig også gøre: (noget om vejret eller regnen eller lignende). Jeg har ikke de store minder forbundet med sankthansaften, hvilket jo gør mig til en oplagt taler på sankthansaften. Jeg kan faktisk kun huske sankthansaften sidste år, men det er nok fordi, at jeg blev indlagt på den lukkede på sankthansaften sidste år. Jeg havde, for nu at blive i aftenens tema, ukrudt i hovedet, der havde spredt sig så meget, at jeg simpelthen ikke havde lyst til at leve mere."	"NO QUESTION"	NA	.	-1	-1	982	7856	1	7	7
Test	134	False	experiment	"En hurtig googlesøgning på 'båltale' lod mig forstå, at det er populært at citere fra Midsommervisen, når man holder båltale, så det vil jeg – som det originale menneske jeg er – selvfølgelig også gøre: 'Hver by har sin heks, og hvert sogn sine trolde' synger man, og det er nok fx mig, man refererer til, tænker jeg. Københavns egen lille heksetrold, en kodyl kombination af messias- og mindreværdskomplekser, en selvfed psykotisk cutter med ondt i mavsen, der efter 10 års kamp mod systemet endelig måtte se sig slået og spærret inde på Bispebjerg Hospital. Så dér lå jeg, på én af årets længste dage, og kiggede rundt i et rum, der bare var hvidt."	"NO QUESTION"	NA	.	-1	-1	359	7856	2	7	7
Test	135	False	experiment	"Nogle gange, for adspredelsens skyld, gik jeg ud på mit lille badeværelse for at kigge på det store, sorte hul, der var i loftet, mens jeg sendte en kærlig tanke til den tidligere beboer, der enten havde forsøgt at hænge sig eller havde slået hul i bare frustration, og jeg forstod det egentlig godt. Min go-to-ting, når livet bliver svært, er tragikomik. "	"NO QUESTION"	NA	.	-1	-1	308	7856	3	7	7
Test	136	False	experiment	"Det kan fx være, når man midt i valgkampen erfarer, at Rasmus Paludan ligner live-action-udgaven af Karlsson på taget og griner lidt af det. Det kan også fx være, når ens nabo på den lukkede får en guitar ind på den lukkede, men så kun kan spille åbningsriffet fra Sweet Home Alabama, hvilket han så kompenserer for ved til gengæld at spille det konstant og over det hele på den lukkede."	"NO QUESTION"	NA	.	-1	-1	339	7856	4	7	7
Test	137	False	experiment	"Det kan man også grine lidt af, indtil man erfarer, at tragedien nogle gange vinder, fordi ens nabo på den lukkede om natten smører sit værelse på den lukkede ind i egen afføring. Jeg går ud fra, at det var i frustration – eller også blev han bare træt af hvidt i hvidt. Og jeg forstod det egentlig godt. Jeg var ikke indlagt ret længe af den simple årsag, at jeg slet ikke var syg nok, men det forunderlige ved at have været indlagt er, at folk så, modsat tidligere, står klar til at hjælpe én. Så det seneste år har jeg fx fået hjælp til at luge ud i mit hoved, godt hjulpet på vej af den antipsykotiske medicin Abilify, der abilifyer mig til at gøre sjove ting, såsom fx at sidde på en stol i mere end ti minutter ad gangen eller at have samtaler med mennesker uden at tænke på, hvordan de mon ville se ud, hvis deres øjne var tomater. "	"NO QUESTION"	NA	.	-1	-1	505	7856	5	7	7
Test	138	False	experiment	"Altså på mange måder et kedeligere liv, men et liv jeg, modsat tidligere, gerne vil leve. Da jeg fandt ud af, at jeg skulle holde denne her båltale, og at temaet til arrangementet var ukrudt, var min umiddelbare indskydelse at tale om, at man måske skulle prøve at se på det smukke i ukrudt, her forstået som en virkelig corny metafor for det grimme i ens hoved. "	"NO QUESTION"	NA	.	-1	-1	1104	7856	6	7	7
Test	139	False	experiment	"Man kan luge og luge, men ukrudtet kommer altid tilbage, og derfor kan man måske lige så godt slutte fred med det, fordi det også, på en måde, er smukt. Lad mig forklare: Mit indre følelsesliv er i vid udstrækning som en flad leverpostejsmad. Jeg er meget sjældent glad, for det meste har jeg det jævnt under middel, så når jeg endelig bliver rigtigt ked af det, får ukrudt i hovedet, tænker grimme tanker, er det en form for forløsning. Jeg føler mig i live, fordi jeg føler noget."	"NO QUESTION"	NA	.	-1	-1	837	7856	7	7	7
Test	140	False	experiment	"Alt bliver forkert, men alt bliver smukt, derfra hvor jeg står. Måske fordi jeg føler, at jeg oplever alting for sidste gang. Da jeg præsenterede den tankegang for min kæreste, kiggede han uimponeret på mig og påpegede, at livet lidt er som at have en have, som man er tvunget til at passe og forholde sig til, fordi man af uransagelige årsager ikke kan vælge at bo i lejlighed. Hvis ikke man gør noget aktivt, så gror den til. Ukrudtet slår rødder, og blomsterne dør, og man vil jo ikke have, at blomsterne dør – blomsterne er her en metafor for glæde – for man vil vel være glad, det må være dét, der er målet."	"NO QUESTION"	NA	.	-1	-1	1686	7856	8	7	7
Test	141	False	experiment	"Jeg kiggede på ham og sagde desperat: 'Men man har jo brug for Triste', med reference til Disneys geniale film 'Inside Out', der i min fortolkning handler om, at det er okay at være ked af det, men som i min kærestes fortolkning handler om, at ingen kan eksistere uden Glæde. Så nu er jeg lidt forvirret. Jeg har i lang tid forsøgt at acceptere og elske Triste, fordi Glæde langt hen ad vejen er en by i Rusland for mig. Jeg ved ikke, hvordan man gør, og det gør det svært at stræbe efter. Og jeg har tænkt, at det var en vigtig kamp at være sådan lidt 'se mig, jeg græder', fordi jeg ikke synes, at der er plads til Triste i dagens Danmark, måske fordi jagten på Glæde er blevet som jagten på det næste Den Store Bagedyst."	"NO QUESTION"	NA	.	-1	-1	1330	7856	9	7	7
Test	142	False	experiment	"Men måske er det bare mig. Måske er det bare mig, der synes, at vi mangler et sprog for den sorg, det er, når nogen dør eller gerne vil dø, eller den sorg det er, når nogen mister deres ungdom eller hele liv til en forkert krop, eller den sorg det er, når alt bare er forkert hele tiden."	"NO QUESTION"	NA	.	-1	-1	308	7856	10	7	7
Test	143	False	experiment	"Noget tyder dog på, at det ikke bare er mig. I hvert fald har hver femte i den arbejdsdygtige alder psykiske problemer, og det provokerer mig, at et på mange måder kollektivt problem, der ifølge OECD årligt koster Danmark 110 milliarder kroner, skal løses individuelt ved, at individet bare begynder at tage noget medicin eller at gå til psykolog, så individet kan komme tilbage på arbejde igen, så vi kan holde det samfund i gang, der jo godt kunne tænkes at være en del af problemet."	"NO QUESTION"	NA	.	-1	-1	495	7856	11	7	7
Test	144	False	experiment	"Jeg tænker tit, at det er svært at være menneske, og at man måske – på samfundsplan – burde tale lidt mere om, at det er svært at være menneske, så det måske ville blive lidt mindre ensomt at være et svært menneske, men fordi jeg er en løsningsorienteret pleaser, og fordi jeg fik nok af andre folks gode råd, besluttede jeg mig i forbindelse med denne tale for at løse alle mine problemer individuelt, og én gang for alle, ved at google noget i retningen af: 'Hvordan fixer man alle sine problemer'. Jeg endte hos Psykiatrifonden, hvis formand påpegede, at det: 'handler om at finde værdi i det, man har'. "	"NO QUESTION"	NA	.	-1	-1	158	7856	12	7	7
Test	145	False	experiment	"'Nå', tænkte jeg, 'var det bare det', tænkte jeg, før jeg lige bagefter tænkte, at det jo stemte meget godt overens med mit forsøg på at finde værdien i Triste, og så havde jeg det godt med mig selv, fordi jeg ligesom havde knækket koden, indtil jeg kom til at tænke på, at hvis man nu fx har mistet sine nøgler et sted på Nørrebrogade, så vil man nok hellere lede efter de nøgler end at finde værdi i, at man stadig har et æble nede i sin skoletaske, som man selvfølgelig sagtens kunne dele med én af sine nærmeste og så bare være sådan lidt 'fuck de dér nøgler, nu spiser vi to bare æble og hygger os'."	"NO QUESTION"	NA	.	-1	-1	195	7856	13	7	7
Test	146	False	experiment	"Men et eller andet sted dybt dernede i selvhadet, der føler man, at man fortjener at kunne komme hjem igen. Måske føler man, at også man fortjener Glæde. At også man fortjener den sol, der skinner på én, at også man fortjener de fødder, man kysser om morgenen, at også man fortjener grillparties og vild natur. Men når nu man bare er en lille heksetrold, er det selvfølgelig lidt demotiverende at næste linje i Midsommervisen går: 'Dem vil vi fra livet med glædesblus holde', og her på sankthansaften kan man jo så tænke lidt over, om alting var lettere i gamle dage, hvor man simpelthen bare satte ild til lortet. Til samfundets ukrudt, heksene, de anderledes, dem, der ville være mere, end deres køn berettigede til, eller dem, der ikke var glade og normale nok. Puf, og så gik samfundets dårlige samvittighed op i røg."	"NO QUESTION"	NA	.	-1	-1	391	7856	14	7	7
Test	147	False	experiment	"Guderne skal da vide, at jeg nogle gange har lyst til at gøre det samme med mig selv og mit ukrudt i hovedet, bare lige finde sådan en stor, fed ukrudtsbrænder, og så bare gå amokkacino ud over det hele. Men det finurlige er jo, at ukrudtet altid finder sin vej igen, ligesom blomsten også finder sin vej igen. For man skal pleje og passe de blomster, man har fået tildelt, men samtidig kan man jo bruge hele sit liv på at luge al ukrudt i den have, der er life, i forsøget på at få den fin og ligusteragtig, eller også kan man embrace, at der altid vil være lidt tilbage og så prøve på at insistere på det smukke i dét. At insistere på, at Triste og Glæde ikke er hinandens modsætninger, men hinandens forudsætninger. Det har jeg i hvert fald tænkt mig, næste gang jeg bliver deprimeret."	"NO QUESTION"	NA	.	-1	-1	3857	7856	15	7	7
Test	148	False	experiment	"Slutteligt vil jeg gerne sige, at det sgu trods alt er at foretrække at ligge i et hvidt rum på den lukkede og lytte til indledningen af Sweet Home Alabama, end det er at ligge på toppen af en stor stak kvas og vente på, at ilden tager fat. Bispebjerg er bedre end Bloksbjerg, det er dejligt at bo i et samfund, hvor man hjælper folk i stedet for at brænde dem, og selvom hver by har sin heks og hvert sogn sine trolde, som vi fra livet med glædesblus vil holde, så er jeg her altså endnu, og det er jeg oprigtigt taknemmelig for. Tak."	"Spørgsmål:\nNævner taleren at have været indlagt på Sankt Hans Hospital?"	2	1	4353	0	2969	7856	16	7	7
Test	149	False	experiment	"NY TALE BEGYNDER NU"	"NO QUESTION"	NA	.	-1	-1	666	7797	-1	8	8
Test	150	False	experiment	"Det er bålet, der om lidt fanger vore øjne, selv om aftenen er lys. Vi samles om bålet, som vore forfædre har gjort i årtusinder, siden isen forsvandt fra vore breddegrader. De tændte bål for at varme sig. De tændte bål for at holde de vilde dyr væk. De tændte bål for at advare mod fjender. Bålet varmer. Det fortærer. Det udsletter sig selv. Det ligner os mennesker. Der brænder en ild i os. Vi brænder hver især for noget, og vi brænder ud til sidst. "	"NO QUESTION"	NA	.	-1	-1	481	7797	0	8	8
Test	151	False	experiment	"Hvis vi ikke brænder for noget, så kan vi lige så godt lægge os til at dø. Det er ilden i os, der er vores bestemmelse og giver livet mening. Det er kærlighedens ild. Og hadets ild, desværre. I pinsesalmerne skriver Grundtvig om Helligånden som 'tunger af ild og dog prædiken mild' og om, at 'Tungen gløder, hos hedninger såvel som jøder'. Og i fædrelandssalmen skriver han om ilden som symbol på ånden – i dette tilfælde Helligånden, som er billedet på det åndelige, på det, der adskiller mennesker fra dødt ler. Han bruger ilden som symbol på det, vi i dag kalder sammenhængskraften i et land, som han kaldte 'Kærlighed til fædrelandet'."	"NO QUESTION"	NA	.	-1	-1	1140	7797	1	8	8
Test	152	False	experiment	"Derfor hvad end verden siger og hvad verdensmagten vil,\nStår og falder jordens riger dog med kærlighedens ild,\nHvor den blusser, bor livsgrøden,\nHvor den slukkes, hersker døden."	"NO QUESTION"	NA	.	-1	-1	1066	7797	2	8	8
Test	153	False	experiment	"Både mennesker og lande står og falder med den ild. Ilden er de store følelser. Det er alt det, der ikke forandrer sig over tiden. Det er den, vi finder hos de store dramatikere, selv om deres værker er oldgamle. Shakespeare, Dostojevski, Ibsen, Kaj Munk. De vigtigste ting i tilværelsen forandrer sig ikke. Vi, der er samlet om bålet, har alle de væsentlige ting fælles med dem, der stod og sad om bålet i tidligere tider. Bålet blev også brugt til at bekæmpe ondskaben."	"NO QUESTION"	1	.	-1	-1	1031	7797	3	8	8
Test	154	False	experiment	"Derfor brændte man hekse på bålet – især på den tid, da Christian den Fjerde levede - i 1600-tallet. Han klagede over, at der blev brændt for få hekse. Han ville fordrive det onde. Alene i en enkelt lille by i Norge blev der brændt et stort antal hekse. Chr. IV mente, det måtte være heksenes skyld, når der var misvækst, kolde somre og isvintre. De var skyld i, at han tabte alle sine krige – og blev svigtet af sin elskede (Kirstine Munk)."	"Spørgsmål:\nGav Christian IV - ifølge taleren - hekse skylden for kolde somre?"	1	1	3196	1	1007	7797	4	8	8
Test	155	False	experiment	"'Hver by har sin heks, og hvert sogn sine trolde.' Det har digteren Holger Drachmann ret i. Sådan er det fortsat. Men vi brænder dem ikke. For, som Suzanne Brøgger siger om sig selv: 'Tidligere brændte man heksene på bålet. Nu udgiver man deres bøger!' Det kan man da kalde en tilståelse! Men i stedet for bål har vi så fået medier. I mediernes flammehav fortæres både skyldige og uskyldige, hekse og godtfolk, der ikke passer på. I visse medier, og især i de sociale medier, kan løgne trives og spredes, fordi de ikke bliver imødegået."	"NO QUESTION"	NA	.	-1	-1	1389	7797	5	8	8
Test	156	False	experiment	"Det viser værdien af medier, der lever op til sandhedskrav. Det viser værdien af direkte personkontakt og autentiske oplevelser. Og det forklarer, hvorfor danskerne i stærkt stigende tal strømmer til festivaler, folkemøder, biblioteker, museer osv. De vil have autentiske oplevelser, møde det virkelige frem for mediernes tyggemad. "	"NO QUESTION"	NA	.	-1	-1	1227	7797	6	8	8
Test	157	False	experiment	"Ved I for resten, hvad forskellen er på Vorherre og en journalist? – Vorherre tror ikke, at han ikke er journalist! – Forstod I den! Nu sidder så Mette Frederiksen og forhandler og forhandler. Hun kommer til at sande, som USA's præsident Bill Clinton engang sagde: 'At være politisk leder er som at bestyre en kirkegård. Man har mange under sig, men ingen hører efter!'"	"NO QUESTION"	NA	.	-1	-1	397	7797	7	8	8
Test	158	False	experiment	"Men lad os her ved bålet glæde os over vores herlige land og den herlige, uforudsigelige sommer. 'Snart kolde farver i sky og vand – snart nøgne piger ved hver en strand.' 'Og stundom ud af din fulde glød / sprang lyn fra skyen i jordens skød.' 'Byger, som går og kommer. Det er den danske sommer.' Jeg stod engang ved et sankthansbål ved Øresund og snakkede med en svensker. Da vi havde sunget 'Danmark nu blunder den lyse nat', som er blevet kåret til Danmarks bedste sang, udbrød han pludselig til min overraskelse: 'Den er jo nationalistisk!' Og sandt nok, den nævner Danmark i hvert andet vers."	"NO QUESTION"	NA	.	-1	-1	1275	7797	8	8	8
Test	159	False	experiment	"Men hvad er der galt i det? Må man heller ikke elske sine forældre, søskende og kærester? Hvad har han mon tænkt sidste lørdag, da Dannebrog fyldte 800 år, og landet flød over med rød-hvide flag og uendelige kærlighedserklæringer? "	"NO QUESTION"	NA	.	-1	-1	1342	7797	9	8	8
Test	160	False	experiment	"– Vi kan jo ikke gøre for, at det danske flag er det smukkeste i verden! Det er jo så gammelt, at vi fik lov at vælge først, før de øvrige mere spraglede nordiske korsflag. Kærligheden til flaget og fædrelandet er jo ikke vendt mod nogle andre. Det er et korsflag. Korset står for tilgivelse og åbenhed over for andre."	"NO QUESTION"	NA	.	-1	-1	1611	7797	10	8	8
Test	161	False	experiment	"Vi har lov at være glade for vores land, når blot det ikke går ud over andre. Vi skal huske dem, der ofrede sig, for at vi kan være frie, og dem, der sled og slæbte, for at vi kunne komme så vidt, som vi er. Vi overlevede nederlagene til Sverige i 1600-tallet, til England i Napoleonskrigene, hvor vi mistede Norge, og til Preussen i 1864. Vi overlevede den kolde krig med Sovjet. Vi så Berlinmuren falde. Polen rev sig fri, og de baltiske lande genopstod. Vi vil også overleve, at England nu vender os og Europa ryggen. Og vi vil overleve, at USA måske engang ikke mere er garanten for vores sikkerhed. Men Putins aggression i Ukraine får det til at løbe koldt ned ad ryggen. "	"NO QUESTION"	NA	.	-1	-1	2596	7797	11	8	8
Test	162	False	experiment	"Nu må vi gentænke hele forsvarspolitikken, ikke mindst med tanke på Arktis, der ikke må være et tomrum, der frister Putin. Her er det oplagt med et nordisk samarbejde, som vi burde udvikle langt stærkere. Sammen er vi store. Vi har verdens største handelsflåde tilsammen, og vores samlede nationalprodukt kan måle sig med Ruslands. Lad os lægge småstatsmentaliteten bag os. Efter Sovjetunionens og Berlinmurens fald har vi meldt os ind i verden. Danske fly opererer uden for landets grænser. Med massiv opbakning i befolkningen. Vi er aktivistiske, med alt hvad det indebærer. For når man melder sig ind i verden, kan man også komme til skade."	"NO QUESTION"	NA	.	-1	-1	1863	7797	12	8	8
Test	163	False	experiment	"Jeg forstår godt, nogen spørger: Skulle vi ikke bare lade hele Mellemøsten sejle i egen sø? – De, der kritiserede indsatsen i Irak, de har jo så fået deres vilje, når det gælder Syrien, hvor vi har forholdt os passive. Og det gik jo endnu værre! Da vi greb ind, gik det galt. Og da vi ikke greb ind, gik det også galt! Mon ikke regeringsforhandlingerne også handler om forsvaret – det amerikanske krav om, at vi skal bruge to procent på forsvaret. Jeg husker en tidligere forhandling med De Radikale, hvor den radikale ordfører slog i bordet: 'I får ikke nye raketter, før I har brugt de gamle!' Vi ved ikke, hvad det næste bliver."	"NO QUESTION"	NA	.	-1	-1	558	7797	13	8	8
Test	164	False	experiment	"Om endnu en terroraktion vil lykkes. Om det går galt et eller andet sted. Det vigtigste er, at vi ikke dør af skræk og tryghedsnarkomani. Vi kan ikke eliminere enhver risiko. 'Det, vi især skal frygte, er frygten selv', sagde den amerikanske præsident Roosevelt. Det tænker jeg dagligt på, når Rigsdagsgården på Christiansborg lukker for trafik, og når man skal tage sin livrem af i lufthavnens sikkerhedskontrol. Er det ikke lige netop den frygt, terrorister gerne vil skabe? Vi må for alt i verden ikke gå i panik over klimaudfordringen. 'I want you to panic', siger 16-årige Greta Thunberg. Men det er et dårligt råd."	"Spørgsmål:\nCiterer taleren Harry S. Truman for at sige: 'Det, vi især skal frygte, er frygten selv'?"	2	1	918	0	769	7797	14	8	8
Test	165	False	experiment	"Lad os i stedet tage udfordringen som en kærkommen anledning til at forske og udvikle os til nye energikilder og nye måder at lagre og spare energi. Danmark har de allerbedste forudsætninger for at gå foran og tilmed tjene penge på det. Lad os ikke blive tryghedsnarkomaner. Vore muligheder er fantastiske, fordi vi har en tillidskultur med utallige ildsjæle i foreningsdanmark, frivilligdanmark og højskoledanmark. Ildsjælene, det er dem, vi skal tænke på, når bålet nu tændes og blusser op og til sidst brænder ned. Og til alle ildsjælene vil jeg sige, som min gamle forstander på Askov Højskole, når han gik hjem og havde fået lidt inden for vesten: 'Herren velsigne og forbavse jer!'"	"NO QUESTION"	NA	.	-1	-1	475	7797	15	8	8
Test	166	False	experiment	"NY TALE BEGYNDER NU"	"NO QUESTION"	NA	.	-1	-1	299	1323	-1	8	8
Test	167	False	experiment	"Regn giver liv. Regn er rigtig godt for mange ting – men i små mængder. Det kan vi vist alle blive enige om efter en sommer med kloakvand i kældrene og oversvømmede marker så langt øjet rækker."	"NO QUESTION"	NA	.	-1	-1	239	1323	0	8	8
Test	168	False	experiment	"Vi står lige nu over for en gigantisk udfordring med at tilpasse os fremtidens klima og håndtere de store regnmængder. Jeg tror, det er helt afgørende, at vi går til arbejdet med en åbenhed overfor nye ideer og nye partnerskaber. Ingen kommune, intet forsyningsselskab og ingen borger kan løse det her problem alene. Det har derfor været meget vigtigt for mig at kunne komme her i dag og starte dialogen med alle jer."	"NO QUESTION"	NA	.	-1	-1	466	1323	1	8	8
Test	169	False	experiment	"Jeg kommer ikke med den helt store pose penge, som nogen af jer måske havde håbet på. Men jeg kommer heller ikke tomhændet: Jeg kommer med en ny regering, der strutter af energi og initiativlyst."	"NO QUESTION"	NA	.	-1	-1	800	1323	2	8	8
Test	170	False	experiment	"Den tidligere regering har forsømt at handle på vores viden om klimaforandringer og deres konsekvenser. Den nye regering markerer et skift i tilgangen til at løse klimatilpasning – fra passiv vidensopsamling til at handle i fællesskab og dialog."	"NO QUESTION"	NA	.	-1	-1	1197	1323	3	8	8
Test	171	False	experiment	"Jeg kommer også med en klimatilpasningspakke, der skal styrke og opprioritere indsatsen for klimatilpasning. Pakken bliver en bred palet af initiativer, der med udgangspunkt i regeringsgrundlaget både dækker ny lovgivning, styrket rådgivning og løsningsorienteret dialog. For på trods af de økonomiske krisetider, løfter vi fanen højt for klimatilpasning. Opgaven skal løses. Og den skal løses i fællesskab."	"NO QUESTION"	NA	.	-1	-1	1059	1323	4	8	8
Test	172	False	experiment	"For at få mest muligt ud af de sparsomme midler, gælder det om at løse flere problemer på en gang. På verdensplan står vi med to kriser: den økonomiske krise og klima- og ressourcekrisen. De to kriser hænger sammen og skal også løses sammen. Danmark skal være et grønt demonstrationsland, hvor nye teknologier bliver udviklet og afprøvet, så de bliver efterspurgt globalt."	"NO QUESTION"	NA	.	-1	-1	1260	1323	5	8	8
Test	173	False	experiment	"På mere lokalt plan – det, som vi har fokus på i dag – skal vi også se tingene i sammenhæng. Vand og natur har oprindeligt befundet sig i fine kredsløb. Det har vi i takt med udviklingen af det civiliserede samfund rykket på. Jeg siger selvfølgelig ikke, at vi skal rulle udviklingen tilbage. Men vi har opbygget så utrolig meget viden og teknologi i vores moderne samfund, at vi må kunne bruge noget af det til at få synergieffekter ud af den nødvendige klimatilpasning."	"NO QUESTION"	NA	.	-1	-1	2698	1323	6	8	8
Test	174	False	experiment	"Kan vi for eksempel ikke på én gang fjerne vandet fra det sted, hvor det gør skade, og samtidig bruge det til gavn for naturen, dyrelivet eller til grønne områder i byerne – frem for at sende det ned under jorden i nogle meget dyre betonrør? Det vil vi i regeringen gerne medvirke til."	"NO QUESTION"	NA	.	-1	-1	195	1323	7	8	8
Test	175	False	experiment	"Det er jer, der er helt tæt på problemerne i hverdagen og ved, hvor skoen trykker – eller skulle vi sige – hvor de utætte sprækker er. Hvis vi skal løfte de store udfordringer, der følger med de hyppigere skybrud, er det helt afgørende, at staten, kommuner, forsyninger, erhvervsliv, forskningsinstitutioner og interesseorganisationer har en tæt dialog. Derfor vil jeg skabe rammerne for en styrket dialog om klimatilpasning. Jeg vil i den kommende tid lancere forskellige initiativer, der inddrager interessenter på en ny måde. Jeg vil blandt andet nedsætte et nationalt dialogforum, der for første gang samler nøgleaktører og beslutningstagere på området."	"NO QUESTION"	NA	.	-1	-1	35	1323	8	8	8
Test	176	False	experiment	"Når vi tager fat på dialogen om klimatilpasning, er det på mange måder en konkretisering og udfoldning af 'Kodeks for godt samarbejde', som Miljøministeriet og KL i fællesskab har udarbejdet. Jeg er glad for, at vi i fællesskab tager ansvar for dialog og samarbejde."	"Spørgsmål:\nHar Miljøministeriet alene udarbejdet 'Kodeks for godt samarbejde'?"	2	1	2309	0	1873	1323	9	8	8
Test	177	False	experiment	"Der er allerede mange fine eksempler i kommunerne på, hvordan man håndterer oversvømmelserne. Et af de eksempler, jeg har hørt om, er et tæt samarbejde mellem Ikast-Brande Kommunes planafdeling, miljøforvaltning og forsyning, som har forbundet regnvandsbassiner ad snoede kanaler og integreret det i en lokalplan – fuldstændig ligesom stisystemer, broer og legepladser. Løsningen er klimatilpasset og testet for konsekvenserne ved 'monsterregn'."	"Spørgsmål:\nEr nogle kommuner - på tidspunktet for talen - gået i gang med at håndtere oversvømmelser?"	1	1	2710	1	685	1323	10	8	8
Test	178	False	experiment	"Et andet eksempel er fra Odense, hvor man gik mere radikalt til værks. Efter at vandselskabet havde overvejet flere forskellige traditionelle løsninger, forslog ejerne af de oversvømmelsestruede grunde, at vandselskabet købte deres grunde. Det forslag tog de imod. Husene blev revet ned, og der blev lavet to nye søer. Og så var løsningen faktisk billigere end de løsninger, vandselskabet havde undersøgt."	"NO QUESTION"	NA	.	-1	-1	2518	1323	11	8	8
Test	179	False	experiment	"De to løsninger tjener ikke som facitlister, men som gode eksempler på, hvordan man ved at lytte og samarbejde på nye måder kan finde gode løsninger, der fungerer lige netop der. For der er ingen tvivl om, at løsningerne skal findes lokalt. Derfor er det også helt afgørende, at I i kommunerne lever op til jeres ansvar. Og så lover jeg, at staten vil gøre sit bedste for at give jer gode rammevilkår."	"NO QUESTION"	NA	.	-1	-1	595	1323	12	8	8
Test	180	False	experiment	"Helt overordnet skal vi have en national handlingsplan for klimatilpasning. Den nationale handlingsplan skal skabe overblik og sammenhæng mellem statens initiativer for klimatilpasning, og den skal fokusere på alle de positive synergieffekter, der kan være af klimatilpasning – både i forhold til vand, natur, biodiversitet, infrastruktur, byudvikling, byggeri og fødevareproduktion."	"NO QUESTION"	NA	.	-1	-1	2410	1323	13	8	8
Test	181	False	experiment	"Regeringen skal drøfte, hvordan den nationale handlingsplan bedst muligt kan tilvejebringes. Men der skal tænkes langsigtet og på tværs af sektorer. Handlingsplanen skal vedtages i regeringen. Et af elementerne kan være en klimatilpasningslov, der understøtter helhedsorienterede løsninger for regnvand og skybrud."	"NO QUESTION"	NA	.	-1	-1	248	1323	14	8	8
Test	182	False	experiment	"Vi skal også se på finansieringsmulighederne: Både i forhold til den langsigtede tilpasning, hvor vi med en bred vifte af løsninger skal tilpasse os fremtidens klima for at bevare serviceniveauet. Det kan for eksempel være ved at bygge større rør, lave faskiner på private grunde, grønne tage osv. Og også i forhold til de akutte kraftige skybrud, som vi ikke bare kan bygge os ud af. Dem må vi forberede os på ved intelligent styring og opmagasinering, så vandet ledes hen, hvor det gør mindst skade, så længe uvejret står på."	"NO QUESTION"	NA	.	-1	-1	394	1323	15	8	8
Test	183	False	experiment	"Den miljøteknologiske indsats inden for klimatilpasning er også afgørende. Det er vigtigt, at vi forstår at udnytte vores klimaindsats, så vores erhvervsliv kan generobre en international styrkeposition."	"NO QUESTION"	NA	.	-1	-1	296	1323	16	8	8
Test	184	False	experiment	"Inden for kort tid nedsætter vi et stærkt hold af kompetente mennesker i en taskforce, der skal hjælpe med at få omsat gode ideer til konkrete handlinger og sørge for, at arbejdet skrider fremad."	"NO QUESTION"	NA	.	-1	-1	276	1323	17	8	8
Test	185	False	experiment	"Med i taskforcen er også et rejsehold, som etableres i starten af 2012. Det bliver et team af eksperter, som kan rådgive kommuner og virksomheder lokalt. Miljøministeriet har rigtig gode erfaringer med rejsehold fra vindmølleområdet. Ifølge en undersøgelse fra 2010 svarede 93 procent af de kommunale medarbejdere, der blev interviewet, at de var tilfredse eller meget tilfredse med kontakten til vindmøllesekretariatet."	"Spørgsmål:\nKommer rejseholdet fra affaldshåndteringsområdet?"	2	1	1005	0	300	1323	18	8	8
Test	186	False	experiment	"I løbet af 2012 begynder regeringen at rydde de første lovmæssige barrierer af vejen. Som I sikkert alle ved, vedtog Folketinget for et par år siden en helt ny lov for regulering af vand- og spildevandsforsyningerne – Vandsektorloven. Jeg ved godt, at I ikke ligefrem elsker den lov, men den rummer faktisk mange gode initiativer, hvis vi tilrettelægger det rigtigt."	"NO QUESTION"	NA	.	-1	-1	368	1323	19	8	8
Test	187	False	experiment	"Som miljøordfører fulgte jeg med i forhandlingerne af præmisserne for loven, og der er ingen tvivl om, at det ikke var hensigten med loven, at den skulle bremse mulighederne for at investere i klimatilpasning eller gennemføre andre miljømæssige initiativer. Tværtimod var hensigten at høste det potentiale for effektivisering, som fandtes i sektoren, og at udnytte det til gavn for miljøet, til investeringer i sektorens infrastruktur – blandt andet kloakrenovering – eller til lavere priser for forbrugerne."	"NO QUESTION"	NA	.	-1	-1	269	1323	20	8	8
Test	188	False	experiment	"Nu, hvor vi har set, hvordan loven virker i praksis, må vi konstatere, at der er brug for nogle meget skarpe regler omkring beslutning af miljø- og servicemål. Da loven blev forhandlet på plads, var alle enige om at evaluere loven efter tre år. Men jeg mener, at problemerne med miljø- og servicemål er så presserende, at vi bør starte arbejdet med de nødvendige lovændringer nu, En anden vigtig melding er, at regeringen vil sikre en hurtig implementering af direktivet. Det betyder, at risikoområder udpeges af staten her lige om lidt – inden 22. december 2011."	"NO QUESTION"	NA	.	-1	-1	313	1323	21	8	8
Test	189	False	experiment	"Der er i det hele taget dukket nye behov op. For eksempel har både kommuner og forsyningsselskaber længe efterspurgt et regnvandsbidrag, som motiverer grundejerne til at sende regnvandet ned i jorden eller samle det sammen og for eksempel bruge det til havevanding senere – i stedet for at sende det hele direkte i kloakken. Det vil spare spildevandsforsyningen for at bruge penge på at udbygge kloaknettet."	"NO QUESTION"	NA	.	-1	-1	268	1323	22	8	8
Test	190	False	experiment	"Der har også været et ønske om, at vi ser på snitfladerne mellem det takstfinansierede og det skattefinansierede område, så nye løsninger på konsekvenserne af skybrud kan finansieres over taksterne. For eksempel har Københavns Kommune spurgt til muligheden for at kunne takstfinansiere forhøjelse af kantsten og ændrede vejprofiler, der bortleder regnvandet, når der kommer et skybrud."	"NO QUESTION"	NA	.	-1	-1	242	1323	23	8	8
Test	191	False	experiment	"Vi vil også se på planområdet, og der er allerede initiativer i støbeskeen. Jeg vil gå efter, at planloven skal ændres, så I i kommunerne får mulighed for at lægge vægt på klimamæssige hensyn i lokalplanlægningen. I dag kan I kun lokalplanlægge med en arkitektonisk eller funktionel begrundelse."	"Spørgsmål:\nKan kommunerne - på tidspunktet for talen - tage højde for klimamæssige hensyn i lokalplanerne?"	2	1	1071	0	455	1323	24	8	8
Test	192	False	experiment	"Med alle de nye muligheder i hånden er det så op til jer lokalt at lave nogle gode, langsigtede planer for klimatilpasningen. Derfor vil jeg forpligte jer som kommuner til at lave klimatilpasningsplaner inden for de næste to år. Det er nu, I har muligheden for at udarbejde en gennemtænkt plan for de mange og langsigtede udfordringer og investeringer, der uundgåeligt vil komme de kommende år."	"NO QUESTION"	NA	.	-1	-1	626	1323	25	8	8
Test	193	False	experiment	"Benyt chancen for at tænke synergieffekter ind fra starten og etabler et godt samarbejde på tværs af fagområder og kommunegrænser – og mellem kommune og forsyning. Det er nu, platformen brænder, og alle er parate til at handle anderledes og finde nye veje at gå."	"NO QUESTION"	NA	.	-1	-1	359	1323	26	8	8
Test	194	False	experiment	"Fra statslig side skal vi selvfølgelig nok definere nærmere, hvad planen skal indeholde. Og rejseholdets fornemmeste opgave bliver at rådgive kommunerne om opgaven. Nu har jeg fortalt jer om en masse lovinitiativer, som vi planlægger at tage med i klimapakken."	"NO QUESTION"	NA	.	-1	-1	413	1323	27	8	8
Test	195	False	experiment	"Der kan efterfølgende vise sig behov for yderligere initiativer. Vi vil selvfølgelig se på resultatet af dialog med interessenter, på rejseholdets opsamling og erfaringer og på den generelle udvikling af viden under taskforcen."	"Spørgsmål:\nEr rejseholdet en del af taskforcen?"	1	1	559	1	387	1323	28	8	8
Test	196	False	experiment	"Jeg håber, at jeg med mit oplæg har fået understreget, at regeringen vil noget med klimatilpasning. Det er slut med at fedtspille. Som sagt er nøgleordene for regeringens arbejde på dette felt: Fra viden til handling gennem dialog og samarbejde. Jeg er helt sikker på, at vi i den proces, vi nu sætter i gang, i samlet flok vil få en masse nye ideer, som ingen endnu har tænkt på."	"NO QUESTION"	NA	.	-1	-1	544	1323	29	8	8
Test	197	False	experiment	"Aksel Larsen, som stiftede det parti, jeg selv kommer fra, sagde engang: 'Man skal ikke løfte fanen så højt, at benene ikke kan nå jorden.' Jeg sagde i starten, at vi løfter fanen højt. Men vi gør det ikke uden at bevare jordforbindelsen. Lad os komme i gang med arbejdet, så vi bliver fri for at skovle mere vand ud af kældrene i fremtiden. Jeg håber, I vil være med hele vejen."	"NO QUESTION"	NA	.	-1	-1	275	1323	30	8	8
Test	198	False	experiment	"NY TALE BEGYNDER NU"	"NO QUESTION"	NA	.	-1	-1	477	10440	-1	6	6
Test	199	False	experiment	"Jeg vil også gerne byde jer velkommen her til årets Erhvervs-Get-Together, hvor vi skal lytte, lære og tale sammen om det erhvervsliv, vi alle på den ene eller anden måde er en del af. Vi har to spændende foredragsholdere med os i dag. De vil tale om lederskab og om fremtidens arbejdsmarked. To emner, der må siges at være mere end relevante for os alle. Og jeg vil bruge anledningen til at komme ind på netop de emner nu, hvor jeg har ordet."	"NO QUESTION"	NA	.	-1	-1	318	10440	0	6	6
Test	200	False	experiment	"Det blæser ofte en del i Frederikshavn. Sådan er det jo ved kysten. Og af og til rammes vi af modvind. Også i overført betydning. Vi har hørt det før. Gang på gang faktisk. Kommunen står over for en række udfordringer, vi må og skal håndtere. Det er ikke noget nyt. Og det er ikke noget, der kan slå os i jorden, hvis vi står sammen. Der er modvind, om man vil, lokalt."	"NO QUESTION"	NA	.	-1	-1	291	10440	1	6	6
Test	201	False	experiment	"Der er udfordringer, når vi ser på kommunernes økonomi – også i Frederikshavn Kommune. Der er udfordringer, når vi ser på kommunens demografiske udvikling med færre unge og flere ældre. Der er udfordringer, når vi ser på arbejdsstyrken og særligt alle dem, der står uden for den."	"NO QUESTION"	NA	.	-1	-1	420	10440	2	6	6
Test	202	False	experiment	"Kigger vi op og ud. Kigger vi længere frem og internationalt, så står vi, vores børn og vores børnebørn – som en del af verdenssamfundet – over for miljømæssige udfordringer af proportioner, der kan være svære helt at begribe. Havstigning, forurening, global opvarmning. Det trækker op til storm ude i horisonten. Et uvejr, som vi ikke kan gå udenom, men som vi må gå igennem. Sammen."	"Spørgsmål:\nMener taleren at forurening er en af de store udfordringer som vi må gå i møde?"	1	1	683	1	253	10440	3	6	6
Test	203	False	experiment	"Når et skib rammes af en brandstorm, så kommer det og dets mandskab kun uskadt ind til kysten, hvis kaptajnen bliver på broen og viser vejen gennem vandmasserne. At turde blive på broen, når bølgerne hamrer ned over dækket. Det er lederskab. Lederskab er at stå for det, man tror på, selvom der er modstand. At turde tage de svære beslutninger, som kan have alvorlige konsekvenser, når beslutningerne er nødvendige."	"NO QUESTION"	NA	.	-1	-1	341	10440	4	6	6
Test	204	False	experiment	"Hvis vores virksomheder skal være konkurrencedygtige og forblive det, hvis vi skal gøre os forhåbninger om at tiltrække flere internationale medspillere på erhvervsfronten, så må og skal vi sikre os adgang til grøn energi. Virkeligheden kræver handling – både for vores egen og kommende generationers skyld. Derfor var det nødvendigt at kæmpe for vindmølle-testanlægget ud for vores kyst. Det projekt er det langt fra alle, som kan se fornuften i her og nu. Men de færreste kan benægte, at det er fornuftigt, hvis vi retter blikket ud og fremad."	"NO QUESTION"	NA	.	-1	-1	466	10440	5	6	6
Test	205	False	experiment	"Hvis vi kigger fremad, så kan vi nok også godt få øje på fornuften i at satse på et destinationsselskab. Hvis vi vil bevare vores styrkeposition i turismeindustrien og forbedre den, så må vi alliere os med nabokommuner. Vi må sætte vores ambitionsniveau sammen med andre. Når der har været et økonomisk merforbrug i kommunens arbejdsmarkedscenter på mere end 30 millioner kroner, så skal der også tages svære beslutninger. Der skal tages afsked med værdsatte medarbejdere. Det er ikke nemt. Men det skal gøres. Lederskab er at turde gå forrest gennem udfordringerne. Lederskab er at vise vejen."	"NO QUESTION"	NA	.	-1	-1	258	10440	6	6	6
Test	206	False	experiment	"Jeg håber, at I vil være med til at vise vejen. Jeg tror på, at I tør gå forrest, når det gælder de af vores medborgere, som står uden for arbejdsmarkedet. Nej, det er ikke alle, der vil. Og det er ikke alle, der kan. Men der er mange med uudnyttede evner i vores kommune, som drømmer om at få det, I har. Et job at stå op til. En værdig plads i samfundet med kollegaer. Det at drikke dagens første kop kaffe på arbejdspladsen og se frem mod de opgaver, den byder på. Opgaver, der giver mening."	"NO QUESTION"	NA	.	-1	-1	269	10440	7	6	6
Test	207	False	experiment	"Under valgkampen sagde direktøren for TDC noget, der gjorde mig glad. Han sagde, at landets virksomheder skal tage et samfundsansvar – et socialt ansvar. Han sagde, at de, virksomhederne, er en del af samfundet og skal tage deres del af byrden. For et samfund er først og fremmest et fællesskab."	"NO QUESTION"	NA	.	-1	-1	59	10440	8	6	6
Test	208	False	experiment	"Det gør mig glad og stolt, når Danish Crown i Sæby ansætter 97 flygtninge og indvandrere, uddanner dem og giver dem et eksistensgrundlag. Det gør mig glad, når man hos M.A.R.S. her i Frederikshavn forpligter sig til at tage imod langtidsledige, til at lære dem op og vise dem ind på arbejdsmarkedet. Det gør mig glad, når vores turisthus råber sine medlemmer op og opfordrer dem til at kontakte Frederiksavn Kommune, når de mangler hænder."	"NO QUESTION"	NA	.	-1	-1	217	10440	9	6	6
Test	209	False	experiment	"Vi er her for at hjælpe jer. Og vi håber, I vil hjælpe os og de af vores borgere, der har brug for en kyndig hånd. Move North har i de to år, rekrutteringsindsatsen har eksisteret, skaffet 50 nye specialister til vores virksomheder. Tag fat i Move North, når I mangler ingeniører, maskinmestre og andre teknisk kyndige. Arbejdsmarkedscenteret kan hjælpe jer med at skaffe resten. Tag fat her, når I mangler råstyrken. Når I mangler dem, der kan løfte kabeltromlerne, groft sagt. "	"NO QUESTION"	NA	.	-1	-1	296	10440	10	6	6
Test	210	False	experiment	"Støt op om kampen for at få alle med. Så styrker I hele kommunen, og så styrker I jeres virksomhed. Jeg tror på, at man bliver stærkere af at hjælpe dem, der er svagere. Så styrker vi også det billede, vi viser resten af landet, når vi inviterer pressen hertil for at fortælle om vores indsats. Vis vejen for dem, der ikke har fundet den selv. Så vil vi gå sammen med jer."	"NO QUESTION"	NA	.	-1	-1	223	10440	11	6	6
Test	211	False	experiment	"Nok er der udfordringer. Nok har vi en kamp, vi skal vinde. Men vores historie viser, at vi har en evne til at overleve. Det ligger i vores DNA. Værfter og andre virksomheder lukker. Kriser rammer os. Men vi rejser os. Altid. Vi står igennem og vi bliver stærkere. Vi står gennem stormen. Vi lader den ikke blæse os omkuld. Og vi har også tænkt os at overleve nu. Vi har tænkt os at overleve sammen. Der er allerede kommet god vind i sejlene."	"NO QUESTION"	NA	.	-1	-1	236	10440	12	6	6
Test	212	False	experiment	"NY TALE BEGYNDER NU"	"NO QUESTION"	NA	.	-1	-1	450	17526	-1	6	6
Test	213	False	experiment	"Kære studenter\nI dag er en festdag! I dag har jeg fornøjelsen af at skulle dimittere jer som studenter fra Gribskov Gymnasium, men inden vi når så langt, har jeg muligheden for at få jeres fulde opmærksomhed og give jer et par bevingede ord med på vejen."	"NO QUESTION"	NA	.	-1	-1	273	17526	0	6	6
Test	214	False	experiment	"I har nu været på Gribskov Gymnasium i 3 år – jeg har kun været her et halvt år, så jeg kender ikke jer alle sammen så godt, men jeg vil gerne sige tusind tak til jer alle sammen for den imødekommende og positive modtagelse, I har givet mig."	"NO QUESTION"	NA	.	-1	-1	356	17526	1	6	6
